#"+EI Scan (rt: 4.520-4.596 min, 14 scans) R6M1.D  Subtract "
#Point,X(Thompsons),Y(Counts)
40.0824 118.08171081543
41.0453 2730.96533203125
42.0800 258.379547119141
42.2000 20.2004356384277
43.0100 342.243682861328
43.8900 186.901153564453
45.0800 81.0537490844727
45.9300 23.2322959899902
47.0000 319.795959472656
47.0900 36.2082595825195
49.7700 15.9514465332031
49.9100 117.895698547363
50.0349 53.9197616577148
50.9856 597.524597167969
51.8300 64.6301193237305
51.9700 75.2811050415039
52.0600 134.192153930664
53.0410 272.165557861328
53.7900 47.5403099060059
54.1200 74.1463775634766
55.0600 753.719299316406
56.0600 212.668334960938
56.2100 36.0071258544922
57.0500 1734.03125
57.8000 42.4021530151367
58.0900 62.3395576477051
58.2000 90.6258926391602
59.0400 129.4814453125
59.8800 81.3803024291992
60.0598 4.89950561523438
60.9500 82.4158554077148
61.9800 317.275177001953
62.8500 99.5364761352539
62.9928 554.783813476563
63.9500 217.118392944336
64.9011 8.60938262939453
65.0200 212.578582763672
65.7700 11.6213760375977
65.8800 26.9800281524658
66.0000 43.143985748291
66.9200 113.252243041992
67.0339 102.64111328125
67.9700 28.9979095458984
69.0600 328.274475097656
69.8700 21.9873752593994
70.0600 91.218620300293
70.9400 109.99340057373
71.2500 40.7206497192383
71.9900 43.8502540588379
72.1200 54.0157203674316
73.0350 2.0791015625
73.9300 315.987457275391
74.0354 86.693359375
74.9100 82.6708602905273
75.0100 1623.85571289063
75.8000 16.8361892700195
76.0500 1073.93884277344
77.0286 3484.6220703125
78.0200 1083.72412109375
78.8700 95.3164901733398
78.9954 70.7384033203125
79.8200 58.0520629882813
80.0900 83.2152252197266
81.7300 17.2904262542725
82.0796 43.4169921875
82.8900 281.339782714844
84.5300 13.5544681549072
84.7500 38.4893264770508
85.1000 165.386352539063
86.0300 164.202835083008
86.8500 64.8098983764648
86.9900 336.927154541016
87.1200 149.325698852539
87.9100 160.589340209961
88.0300 701.340026855469
88.9922 1610.56774902344
89.1400 81.1347885131836
90.0100 647.736938476563
90.9655 65.0696105957031
91.1075 49.3675842285156
93.1100 120.68758392334
93.3600 37.4788436889648
93.7400 14.6809701919556
94.0600 131.305267333984
94.2300 38.7523231506348
94.4200 40.9280738830566
94.5800 12.316725730896
94.7400 185.132659912109
94.9900 21.0737457275391
95.0900 121.68350982666
95.2200 72.9821624755859
95.6800 29.1054553985596
95.7700 41.8837013244629
96.2200 42.7608871459961
96.3500 18.1709022521973
96.7900 78.8349456787109
97.0559 75.7962188720703
97.3400 23.2800807952881
97.5100 17.4303855895996
97.9600 90.5300369262695
98.0500 44.2541694641113
98.8900 60.7295532226563
98.9700 255.196640014648
99.2000 42.8686752319336
99.6700 44.7236061096191
99.8900 172.267333984375
100.0600 221.402862548828
100.8300 48.9560852050781
100.9800 1547.98767089844
101.0500 986.859741210938
102.0245 2266.76000976563
102.9900 965.689575195313
103.1200 64.8492889404297
103.9000 48.7857856750488
104.0200 212.24674987793
105.0200 78.9077682495117
105.9800 29.8458003997803
106.1600 99.6766891479492
106.4400 29.5364036560059
106.5500 21.8250217437744
106.7000 156.786651611328
107.0300 212.859771728516
107.1700 13.194993019104
107.4100 95.1705932617188
107.7200 13.7095394134521
107.9500 57.5495529174805
108.2400 46.1825637817383
108.9900 364.478271484375
109.6400 25.5126800537109
109.8100 43.9538993835449
110.0800 159.742523193359
110.8500 20.9884910583496
111.0600 100.703674316406
111.5900 23.5562953948975
111.8600 62.9558181762695
112.0586 50.4221420288086
112.2700 19.8557758331299
112.8874 38.1294860839844
113.0400 812.360046386719
113.8800 391.427734375
114.0180 695.5390625
114.9611 1338.79626464844
115.0500 975.601989746094
116.0172 4391.25
117.0334 1791.74743652344
118.0000 221.699813842773
118.1000 129.135025024414
118.2300 32.6063003540039
118.7100 65.4984817504883
118.9400 312.386383056641
119.0500 56.4229125976563
119.4800 31.8076648712158
119.6400 65.9786605834961
119.7700 63.4526977539063
120.0400 24.9929752349854
120.2000 56.0707588195801
120.3800 191.832000732422
120.5100 256.160858154297
120.7100 216.122589111328
120.8300 113.019668579102
121.0900 62.1296195983887
121.2800 59.9440002441406
121.4500 19.9936790466309
121.6000 48.1703491210938
121.7900 11.6281385421753
121.9600 66.13330078125
122.8100 130.196350097656
123.0200 69.8760147094727
123.6000 21.2126750946045
123.8900 90.5028228759766
124.0500 41.7228202819824
124.9156 17.154052734375
125.0462 148.871932983398
125.8900 150.214462280273
126.0600 4194.970703125
127.0389 18943.607421875
128.0300 5495.75830078125
129.0142 2515.35400390625
130.0400 2097.21826171875
130.6500 40.3108100891113
131.0098 189.606506347656
131.1300 40.4718589782715
131.6100 14.9814195632935
131.8000 46.2268943786621
131.9000 70.8718948364258
132.0000 15.5133752822876
132.1300 40.5471687316895
132.7700 92.1128311157227
133.0900 151.958786010742
133.5800 40.7062492370605
133.7900 103.790092468262
134.0800 111.250869750977
134.2500 48.4158744812012
134.8600 283.5185546875
134.9724 220.526000976563
135.7200 142.846923828125
135.8700 168.265869140625
137.0000 1557.9921875
137.9957 563.383544921875
139.0000 1841.59509277344
139.7800 86.4774703979492
139.9157 85.9876251220703
140.0600 162.373260498047
140.9645 912.243835449219
141.5600 543.343933105469
141.6600 50.2250556945801
141.7800 395.217529296875
142.0295 186.371002197266
143.0200 1253.06640625
143.1300 76.0788726806641
144.0183 10147.169921875
144.8821 382.968139648438
145.0215 588.067443847656
145.9000 66.4873123168945
146.0700 120.025764465332
146.8100 130.958343505859
146.9901 1.22175598144531
148.0600 55.4014358520508
148.5800 24.003490447998
148.7000 59.3051681518555
149.0500 117.153396606445
149.2400 31.7887573242188
149.3600 15.8321218490601
149.8400 89.3503494262695
149.9800 118.236518859863
150.0611 103.741836547852
150.8500 49.9218635559082
150.9504 26.427978515625
151.1100 94.1464080810547
151.8000 22.56422996521
151.9636 149.502685546875
152.0600 171.196563720703
152.8100 34.0582313537598
152.9800 304.201019287109
154.0400 403.358551025391
154.1200 39.3385887145996
155.0098 5976.3662109375
155.9699 651.778930664063
156.0500 220.520736694336
156.9200 390.674652099609
157.0010 86.7297973632813
157.8000 44.5603561401367
158.0326 410.002624511719
158.9747 943.060546875
159.8700 541.431091308594
160.9800 701.978637695313
161.6600 22.2585029602051
162.0051 3.79290771484375
162.9900 1259.03442382813
163.6200 95.2898178100586
163.7900 109.586387634277
164.0500 180.477752685547
165.0000 249.7734375
165.8500 21.3463726043701
165.9800 172.992218017578
167.0100 3998.98461914063
167.8600 102.415260314941
168.0166 587.143676757813
168.7100 37.4336967468262
168.8900 227.150604248047
169.7400 11.5658416748047
169.8900 29.1770896911621
169.9900 216.135009765625
170.0800 563.519226074219
170.9600 392.445373535156
171.9400 233.64599609375
172.0800 295.833648681641
172.2300 48.3010597229004
172.7100 20.7800846099854
172.8500 116.966445922852
173.0900 61.4429550170898
173.9000 71.9386825561523
174.0300 133.87776184082
174.8300 49.0215759277344
174.9800 52.5829963684082
175.1500 15.1235475540161
175.8700 105.314353942871
176.0600 157.11067199707
176.8300 68.0128326416016
176.9496 101.23900604248
177.8200 58.8570556640625
178.1300 44.9484634399414
178.6700 11.0956287384033
178.8000 31.7482357025146
178.9600 79.8705215454102
179.0800 19.8838214874268
179.2300 12.6737899780273
179.8400 61.7186546325684
180.7900 43.2629470825195
181.0000 362.830108642578
181.8400 105.158889770508
182.2400 14.3073425292969
182.4300 18.3878841400146
182.7000 11.4819316864014
183.0225 21.1626434326172
183.1100 11.5818948745728
183.9900 190.175643920898
184.7900 128.60466003418
185.0100 87.7822952270508
185.7600 34.6146850585938
185.8900 54.3299522399902
186.0052 146.749694824219
186.8500 42.3215713500977
186.9800 882.009155273438
187.9300 138.827621459961
188.0124 194.522674560547
188.9200 533.123474121094
189.0800 247.9287109375
189.7900 87.7347183227539
189.9700 201.943588256836
190.1800 16.9322032928467
190.7000 56.8663101196289
190.9600 525.001586914063
191.1200 55.9307174682617
191.7400 41.4530220031738
192.0100 68.3615570068359
192.8500 136.833862304688
192.9455 40.9385375976563
193.1500 52.571403503418
193.8000 34.5002937316895
193.9300 120.006576538086
194.8843 280.699157714844
194.9762 278.925872802734
195.6900 14.385160446167
195.8000 71.6247406005859
195.8900 103.89737701416
196.8700 422.894500732422
197.8000 18.8190956115723
197.9300 252.293579101563
198.0415 75.0709991455078
198.9800 898.721801757813
200.0900 16677.68359375
201.0500 2776.03735351563
201.1500 210.886596679688
201.9900 526.341674804688
202.1100 71.0496368408203
202.9116 108.403289794922
203.0800 59.5732460021973
203.7900 12.8617906570435
203.9335 34.2424087524414
204.6400 34.3280601501465
204.7400 15.8660402297974
204.9520 65.7043304443359
205.1200 22.0049934387207
205.7400 19.0734519958496
207.0600 760.419616699219
207.8300 69.8995895385742
208.0300 207.091949462891
208.8100 37.1492652893066
209.0200 217.812042236328
210.0600 124.464668273926
211.0248 180.55078125
212.0528 3316.78100585938
212.9900 404.173431396484
213.0800 2570.08178710938
214.0670 1244.49340820313
214.9810 2467.9150390625
215.9750 46.178466796875
216.9696 214.72265625
217.7600 86.5201873779297
218.9453 370.08056640625
219.8395 24.0667114257813
219.9700 430.688232421875
220.7600 81.8837890625
220.9800 249.301559448242
221.8700 64.7568511962891
222.2300 13.0784358978271
222.7100 113.636756896973
222.9209 83.5540466308594
223.0500 64.3221282958984
223.9900 226.663452148438
224.1000 125.908752441406
224.8900 208.173797607422
225.0153 33.8630218505859
225.1200 111.705497741699
225.9300 58.4444580078125
226.0500 985.642944335938
226.1300 86.8429107666016
226.8200 95.0993499755859
226.9200 65.2095489501953
227.0200 272.184204101563
227.1100 129.506546020508
227.9700 249.493438720703
228.1000 309.039825439453
228.9991 443.133026123047
229.8500 75.5850830078125
230.8100 115.56241607666
230.9928 91.7814636230469
231.1900 21.361270904541
231.8800 121.232261657715
232.0076 23.0173187255859
232.9915 1080.04443359375
233.9100 649.338745117188
234.8500 127.915115356445
234.9900 107.840881347656
236.0000 144.370559692383
236.9711 1444.06396484375
238.0066 1078.99560546875
238.9612 614.460266113281
240.0400 2190.80224609375
241.0700 5359.4091796875
241.9400 30.6266059875488
242.0807 2324.3505859375
242.7900 16.2999610900879
242.9400 237.401962280273
243.0623 159.560394287109
243.1500 215.12922668457
243.9100 68.4103927612305
244.0600 72.1957626342773
244.1600 18.2925567626953
244.9300 116.369560241699
247.0100 12.6138353347778
248.7000 23.0746746063232
249.0600 49.0796775817871
249.1600 15.8929719924927
249.8000 18.9584140777588
250.0900 15.4165868759155
250.3200 12.4541616439819
250.7800 11.7474670410156
250.9000 123.754722595215
251.0200 285.915069580078
251.8800 17.798620223999
251.9900 341.223907470703
252.0500 85.6368789672852
252.6400 22.1038513183594
253.0000 622.56201171875
253.1100 391.553741455078
254.0500 3373.6796875
255.0900 1659.59545898438
256.0569 1994.11083984375
256.1700 38.7982711791992
256.9400 168.014511108398
257.0900 490.638641357422
257.9300 43.1597023010254
258.0800 43.7649230957031
258.6500 18.6855907440186
258.9900 11.1618194580078
259.7600 13.6084690093994
260.7800 15.5597553253174
260.9700 21.5179290771484
261.7900 11.3003149032593
261.9700 10.9248266220093
262.8300 45.7992134094238
263.8000 17.4605560302734
264.2300 17.1541633605957
264.7800 13.8191137313843
264.9800 73.2062454223633
265.0600 152.518936157227
266.0300 870.646179199219
266.9700 422.896636962891
267.0500 563.647399902344
267.1700 114.827278137207
267.9600 51.2832450866699
268.0600 1110.08142089844
268.9000 83.3785858154297
269.0354 1851.52221679688
270.0700 7538.8076171875
271.0600 1936.40258789063
271.1400 199.037490844727
272.0816 101.798454284668
272.2100 24.7783260345459
272.8900 475.186279296875
273.6600 23.7335453033447
273.8100 46.0992050170898
273.9100 95.801025390625
274.8600 374.465515136719
275.8700 79.29248046875
276.0700 46.1285400390625
276.6800 42.3189964294434
276.9900 162.595550537109
277.6800 12.6492385864258
277.8700 24.6891307830811
278.0100 194.058395385742
278.6300 22.7171459197998
278.9200 60.6347427368164
279.0500 107.794166564941
279.9000 58.822868347168
280.0100 400.355194091797
280.5900 25.7141418457031
280.9300 219.897064208984
281.0313 193.14794921875
281.9200 373.142761230469
282.0800 340.079071044922
283.0175 530.742614746094
283.1100 213.818481445313
283.2300 25.7801418304443
284.0911 11278.177734375
284.8400 87.0789947509766
285.0528 2783.55517578125
286.0036 394.236785888672
286.1800 121.883544921875
286.9900 200.152252197266
288.2600 10.8495235443115
289.0000 1095.40844726563
289.9800 225.549545288086
290.7500 39.0984573364258
290.9549 14.339111328125
291.0800 175.137603759766
291.9000 79.4430313110352
292.0500 31.5352039337158
292.8700 1292.82348632813
293.7700 113.203224182129
294.0600 54.9788703918457
294.6800 19.0861625671387
294.9270 211.617599487305
295.1100 55.0713920593262
295.9200 192.921951293945
296.0300 57.1838035583496
296.9700 593.800598144531
297.0800 59.9816818237305
297.8000 29.4595966339111
298.0300 473.726379394531
298.1459 48.1362609863281
298.3200 17.8201160430908
298.6700 30.9175586700439
298.7900 32.1284942626953
298.9300 16.3276615142822
299.0300 337.594451904297
299.1300 79.1428375244141
299.2800 20.3034000396729
301.0100 58.3835563659668
302.8100 58.8955078125
303.1200 15.7067556381226
303.9900 41.2173271179199
304.6800 26.4183559417725
304.8800 49.4349098205566
307.0800 54.6175765991211
307.9300 29.6272087097168
308.0500 515.833557128906
308.1800 211.921493530273
308.7800 18.3043670654297
308.9500 126.568428039551
309.0800 107.979042053223
310.1391 9165.41796875
311.1100 2206.79663085938
311.2500 153.92707824707
311.9800 151.201446533203
312.1000 381.271881103516
312.6900 11.7546482086182
312.8400 21.4394474029541
313.0200 119.010803222656
313.2200 47.6290092468262
313.3600 15.4412984848022
313.9700 16.1748313903809
314.8800 57.4299240112305
316.9000 58.2155418395996
317.0800 46.6105690002441
318.1900 21.309326171875
318.8800 40.6669998168945
319.0200 103.245796203613
320.1600 13.5539846420288
320.9900 15.6601305007935
322.8200 11.8192310333252
323.0700 11.7040643692017
323.8100 16.6158695220947
324.0000 95.7021865844727
324.1000 131.945343017578
324.8700 57.7441596984863
324.9600 29.7748680114746
325.1300 84.847297668457
326.1400 9515.669921875
327.1600 19663.14453125
328.1300 4708.98291015625
328.7900 22.3464603424072
329.0100 195.106521606445
329.1700 449.363586425781
329.7500 17.5809650421143
330.0400 11.6214294433594
330.7400 41.7550849914551
332.8800 35.6388511657715
338.7400 11.4152097702026
340.8800 11.9474821090698
341.1300 192.468032836914
341.2300 13.740668296814
345.0600 11.2676649093628
345.8200 16.4192695617676
348.8600 110.260498046875
349.8800 11.4832353591919
350.1400 12.6043720245361
350.8900 39.3956184387207
352.6400 43.5819511413574
352.8533 8.34218597412109
353.0200 61.8129615783691
354.8000 16.2566757202148
356.9800 15.9960126876831
366.7100 23.9212474822998
366.9800 79.0640869140625
370.9000 17.8647575378418
