#"+EI Scan (rt: 2.034-2.081 min, 9 scans) MIX1-8.D  Subtract "
#Point,X(Thompsons),Y(Counts)
41.0 436.663269042969
42.0 3847.3974609375
43.0 630.85009765625
44.1 13489.6708984375
45.0 424.558044433594
50.0 1165.16711425781
51.0 730.836853027344
52.0 70.0666427612305
52.9 68.1520843505859
54.0 125.063774108887
54.9 46.9596786499023
55.0 345.688537597656
56.0 2358.11962890625
57.0 385.188537597656
58.0 903.754760742188
60.9 77.8761215209961
61.9 19.8129711151123
63.0 186.492080688477
65.0 56.5614624023438
68.0 44.6004028320313
69.0 36.355224609375
70.0 3031.521484375
71.0 140.607238769531
71.1 288.555297851563
72.1 37173.53515625
73.1 2106.07739257813
74.0 621.645629882813
75.0 2718.57299804688
76.0 670.256652832031
77.0 783.3232421875
78.0 112.350547790527
79.0 129.165588378906
84.0 22.9998893737793
84.9 387.520568847656
85.9 18.7700939178467
86.9 100.27025604248
89.0 228.849395751953
91.0 247.995742797852
95.9 37.6909103393555
100.9 41.1967163085938
101.9 68.1167984008789
103.0 434.6328125
103.9 156.492446899414
105.0 222.258758544922
110.0 20.2092533111572
111.0 3713.18920898438
112.0 363.530914306641
113.0 1248.68505859375
113.9 46.0441093444824
114.0 54.0831146240234
115.0 177.028930664063
115.9 20.3944759368896
117.0 21.691535949707
118.9 76.23583984375
124.9 282.190826416016
126.9 99.4161071777344
131.0 242.405731201172
132.0 19.5951442718506
133.0 473.952819824219
134.0 17.0837631225586
137.9 23.4466361999512
139.0 2238.09716796875
139.9 225.135864257813
140.9 791.076721191406
141.9 20.5257034301758
161.0 60.675537109375
166.0 104.049285888672
167.0 40.7049026489258
168.0 309.403106689453
170.0 42.4874382019043
186.0 16.7097568511963
186.1 18.5634632110596
190.9 24.7873954772949
207.0 80.3494873046875
208.0 30.4913330078125
208.9 35.773078918457
