#"+EI Scan (rt: 3.754-3.800 min, 9 scans) MIX1-7.D  Subtract "
#Point,X(Thompsons),Y(Counts)
41.0 782.701232910156
42.0 2934.1796875
43.0 855.505676269531
44.0 7400.67578125
45.0 206.40510559082
50.0 151.300964355469
51.0 334.7099609375
51.9 19.3614311218262
52.0 23.372631072998
53.0 357.765228271484
53.9 18.8810844421387
54.0 157.394073486328
55.0 1163.02551269531
56.0 1370.6318359375
57.0 1736.35620117188
58.0 1141.10559082031
61.0 17.9427833557129
61.1 17.3355541229248
62.0 534.840393066406
63.0 1847.03295898438
64.0 292.380249023438
65.0 2477.0576171875
66.0 161.315856933594
67.0 18.2316246032715
68.0 146.062408447266
69.0 83.1560440063477
70.0 713.428649902344
70.9 25.4650859832764
71.0 214.213165283203
74.0 63.0997772216797
75.0 35.6145477294922
75.9 36.2045516967773
77.0 281.231292724609
78.0 59.5049247741699
78.9 42.3116874694824
79.0 126.393882751465
82.0 17.2710857391357
84.1 2863.255859375
85.0 221.299057006836
85.1 140.845199584961
86.1 41584.3046875
87.1 2501.31030273438
88.0 35.9336624145508
88.9 85.7211761474609
90.9 122.631553649902
91.0 825.952880859375
92.0 142.272811889648
93.0 58.3994064331055
95.6 117.679336547852
95.7 41.1797637939453
95.9 22.5669574737549
96.0 16.7908096313477
102.9 36.4972305297852
104.9 60.116569519043
115.0 41.7750396728516
117.0 40.3152008056641
118.9 255.006378173828
120.0 189.105728149414
121.0 2372.1728515625
121.9 315.112548828125
132.9 68.8127365112305
133.9 85.3516998291016
135.0 410.838073730469
146.9 92.5759353637695
147.1 34.9763641357422
148.0 60.8981742858887
149.0 3230.6650390625
150.0 349.032592773438
162.0 330.499145507813
164.0 705.303833007813
165.0 37.3105316162109
174.0 17.5733242034912
177.0 20.0996475219727
188.0 36.9798851013184
191.0 39.6557846069336
192.0 305.408569335938
207.0 43.30224609375
208.0 36.6853942871094
