#"+EI Scan (rt: 3.754-3.800 min, 9 scans) MIX1-9.D  Subtract "
#Point,X(Thompsons),Y(Counts)
41.0 739.213806152344
42.0 2916.58422851563
43.0 826.624450683594
44.0 7483.49462890625
45.0 190.048614501953
50.0 199.293487548828
51.0 332.572906494141
52.0 57.5070991516113
53.0 386.574951171875
54.0 195.439971923828
55.0 1144.58935546875
56.0 1385.96411132813
57.0 1774.96789550781
58.0 1187.92724609375
60.9 61.9904251098633
62.0 549.544677734375
63.0 1831.85522460938
64.0 260.088592529297
65.0 2385.78247070313
66.0 199.203750610352
68.0 148.130905151367
69.0 38.5180511474609
70.0 715.906494140625
71.0 231.328186035156
73.9 22.9684982299805
74.9 18.5925445556641
75.9 21.1534042358398
77.0 259.967224121094
77.9 38.2584228515625
79.0 148.989562988281
84.1 2914.02392578125
85.1 346.545440673828
86.1 41039.26953125
87.1 2449.05395507813
88.0 43.4474411010742
88.9 64.5770263671875
89.0 17.3084030151367
91.0 964.594177246094
92.0 185.216262817383
93.0 70.8704681396484
95.3 17.5709438323975
95.4 46.3210487365723
95.7 89.8503723144531
95.8 23.5425262451172
96.0 34.7210731506348
102.8 17.3794574737549
103.0 20.3725662231445
104.9 56.445686340332
114.9 62.1920700073242
117.0 34.3974380493164
118.9 22.1480007171631
119.0 210.505920410156
120.0 146.395812988281
121.0 2335.228515625
122.0 293.149719238281
130.9 18.4387741088867
133.0 37.4867324829102
133.9 95.616943359375
134.9 73.5719680786133
135.0 351.513397216797
147.0 132.970962524414
147.9 59.5882301330566
149.0 3204.27685546875
149.9 362.283905029297
162.0 341.446411132813
163.0 20.4772491455078
164.0 679.908752441406
165.0 16.9247093200684
177.0 39.0843849182129
190.0 19.0420303344727
190.9 55.0642051696777
192.0 314.647613525391
207.0 52.2320556640625
208.0 52.5910682678223
