#"+EI Scan (rt: 5.555-5.584 min, 6 scans) MIX1-9.D  Subtract "
#Point,X(Thompsons),Y(Counts)
41.0 8204.87890625
42.0 2816.65649414063
43.0 2949.08813476563
44.0 2976.52807617188
45.0 121.110298156738
50.0 358.643157958984
51.0 853.778747558594
52.0 221.420974731445
53.0 1250.796875
54.0 803.788757324219
55.0 5079.10546875
56.0 5154.47705078125
57.1 7358.0986328125
58.0 439.645782470703
60.9 156.809158325195
62.0 1180.46130371094
63.0 4877.09814453125
64.0 799.354736328125
65.0 8618.138671875
66.0 666.481384277344
67.0 314.318389892578
68.0 794.963317871094
69.0 407.854125976563
70.0 5046.39111328125
71.0 551.196594238281
72.1 14502.9658203125
73.0 820.765502929688
73.9 223.611633300781
75.0 174.379211425781
76.0 247.516357421875
77.0 922.666931152344
78.0 294.083099365234
79.0 531.500427246094
80.0 117.080223083496
80.9 51.8803558349609
81.0 127.707557678223
82.0 347.5986328125
83.0 170.175582885742
83.1 76.0379257202148
84.1 3274.572265625
85.0 405.073852539063
86.1 3611.00390625
87.0 241.687362670898
87.9 28.0687484741211
89.0 313.437622070313
90.0 176.52897644043
91.0 2852.7548828125
92.0 602.376525878906
93.0 717.105651855469
94.3 101.999420166016
94.5 54.001220703125
94.8 71.1173324584961
95.0 41.8349800109863
95.2 85.7584533691406
95.3 142.713958740234
95.8 29.194709777832
95.9 35.5167579650879
96.0 653.930236816406
97.1 67.0130996704102
98.0 705.006652832031
99.1 284.493041992188
100.0 113.724006652832
101.0 28.5659255981445
102.0 113.84415435791
103.0 311.935913085938
103.9 136.972473144531
104.0 112.658714294434
105.0 345.104217529297
106.0 66.3143997192383
106.9 52.8870849609375
112.1 940.893005371094
113.0 102.384307861328
115.0 260.9404296875
116.0 112.643928527832
117.0 405.847137451172
117.9 158.04719543457
118.0 52.3910179138184
119.0 947.09716796875
120.0 707.327087402344
121.0 9080.5830078125
122.0 1171.15295410156
123.0 288.720184326172
126.1 4655.7373046875
127.1 1001.27288818359
128.1 213936.578125
129.1 20007.658203125
130.1 807.251708984375
131.0 270.191528320313
131.9 153.614273071289
132.0 31.7355976104736
132.9 249.31608581543
134.0 81.6143569946289
135.0 4813.46533203125
136.0 516.743957519531
144.0 25.545431137085
145.0 212.6494140625
146.0 265.511566162109
147.0 784.05078125
148.0 1109.35949707031
149.0 14924.0126953125
150.0 2009.99658203125
151.0 227.430313110352
159.0 36.6009635925293
160.0 74.6900787353516
161.0 178.344833374023
162.0 325.944793701172
163.0 82.7451782226563
164.0 579.605773925781
174.0 375.002777099609
175.0 288.153717041016
176.0 140.102294921875
177.0 594.969421386719
178.0 261.424407958984
188.1 26.1168460845947
190.0 238.44287109375
191.0 151.853118896484
192.0 101.818138122559
204.0 297.525421142578
205.1 93.4941024780273
206.1 2394.49536132813
207.0 328.43408203125
230.0 29.0413455963135
230.1 33.0011138916016
232.1 86.0890808105469
234.1 864.252624511719
235.1 108.055839538574
259.1 51.2859382629395
