#"+EI Scan (rt: 1.515-1.556 min, 8 scans) MIX6-5.D  Subtract "
#Point,X(Thompsons),Y(Counts)
41.0 2929.119140625
42.0 9143.2236328125
43.0 3741.13500976563
44.1 316476.96875
45.1 8896.4970703125
46.2 30.6284294128418
46.5 123.701934814453
48.9 85.6961059570313
50.0 3229.92993164063
51.0 8252.658203125
52.0 7087.41015625
53.0 3542.04028320313
54.0 858.18359375
55.0 1142.30163574219
56.0 1784.75122070313
57.0 674.631103515625
58.5 853.936218261719
59.3 53.0764694213867
59.4 44.4600296020508
59.6 611.845581054688
60.1 27.579008102417
60.9 264.653533935547
62.0 1429.38708496094
63.0 4816.314453125
64.0 2016.23608398438
65.0 6003.15966796875
66.0 897.447387695313
67.0 271.670715332031
67.1 504.729064941406
67.3 155.917907714844
67.6 20.6067562103271
68.9 20.517858505249
69.0 49.2639007568359
73.0 96.1189804077148
74.0 111.75895690918
74.3 133.831924438477
74.9 98.2590026855469
75.0 2907.1767578125
76.0 1250.97546386719
77.0 17977.546875
78.0 20800.189453125
79.0 6223.2177734375
80.0 1791.07958984375
81.0 398.830352783203
81.9 105.279846191406
82.1 21.2436428070068
84.9 21.0534286499023
85.0 22.3930625915527
85.9 206.932037353516
87.0 262.072509765625
88.0 84.7884292602539
88.1 27.0983867645264
89.0 5340.1416015625
90.0 2491.04760742188
91.0 12797.8544921875
92.0 3177.91259765625
93.0 1180.42297363281
94.0 631.456176757813
95.0 119.206954956055
96.0 63.2416687011719
101.0 53.7387161254883
102.0 604.396179199219
103.0 1660.71997070313
104.0 1339.23767089844
105.0 1417.64807128906
106.0 4549.1572265625
107.0 9107.6630859375
108.0 1785.58666992188
108.9 27.3162117004395
109.0 289.524536132813
115.0 1581.70349121094
116.0 699.08154296875
117.0 1649.10668945313
118.0 2654.01318359375
119.0 2210.09692382813
120.0 943.9833984375
121.0 42111.16796875
122.0 94368.796875
123.1 8546.1259765625
124.0 558.60791015625
128.0 19.6791362762451
130.0 251.605560302734
131.0 646.29833984375
132.0 950.743286132813
133.0 960.444885253906
134.0 3920.63354492188
135.0 1641.94372558594
136.0 317.396667480469
145.0 52.2631912231445
146.0 187.563507080078
146.1 25.1208992004395
147.0 926.045349121094
148.0 1702.18518066406
149.1 1121.52453613281
150.1 2544.96166992188
151.0 258.822814941406
162.0 258.639282226563
163.1 705.582397460938
164.1 868.48388671875
165.1 1700.89599609375
166.0 163.145950317383
177.0 45.5510330200195
207.0 6.0921630859375
208.0 39.6973571777344
