#"+EI Scan (rt: 1.819-1.865 min, 9 scans) MIX6-5.D  Subtract "
#Point,X(Thompsons),Y(Counts)
41.0 3668.40234375
42.0 4991.3837890625
43.0 871.685852050781
44.0 3423.95922851563
45.0 139.644104003906
50.0 434.161895751953
50.0 127.351387023926
51.0 1009.13934326172
52.0 371.047607421875
53.0 238.932159423828
54.0 405.0185546875
55.0 643.314331054688
56.0 3424.77905273438
57.0 8154.95849609375
58.0 415.034301757813
61.0 17.0187931060791
62.0 386.428344726563
63.0 1558.82739257813
64.0 440.865509033203
65.0 5534.1982421875
66.0 309.899749755859
66.9 17.0830078125
68.0 251.035186767578
69.0 274.785736083984
70.1 4501.98388671875
71.1 1152.29284667969
72.1 99093.7421875
73.1 4969.8798828125
74.0 213.948516845703
75.0 189.831130981445
76.0 128.954879760742
77.0 704.542114257813
78.0 236.036560058594
78.9 36.8636474609375
79.0 134.335510253906
79.9 16.765510559082
80.1 43.1268081665039
80.6 22.44993019104
80.9 16.8235378265381
81.0 20.0200271606445
85.0 18.3341903686523
86.0 81.7313613891602
86.9 67.2681503295898
89.0 1825.84265136719
90.0 834.560363769531
91.0 9057.1865234375
91.9 26.3124732971191
92.0 898.357238769531
93.0 119.455581665039
101.9 41.4807929992676
103.0 267.916168212891
104.0 58.0061912536621
105.0 610.188598632813
105.9 22.865816116333
115.0 504.12646484375
115.9 51.5336036682129
116.0 127.030624389648
117.0 384.878479003906
118.0 268.490203857422
119.0 3885.828125
120.0 441.640258789063
121.0 166.756072998047
122.0 3.38613128662109
127.0 38.267261505127
128.0 173.404037475586
129.0 80.8999938964844
130.0 92.8164672851563
131.0 191.138259887695
131.9 35.1275177001953
132.0 217.646453857422
132.9 149.421203613281
133.9 31.5771083831787
134.0 953.541809082031
135.0 154.668640136719
144.0 166.244262695313
145.0 167.589385986328
146.0 200.925354003906
147.0 800.18310546875
148.0 71.220100402832
148.1 51.1455001831055
158.1 41.8730125427246
160.0 238.836364746094
161.0 157.378936767578
162.0 1813.6787109375
163.0 250.947540283203
191.0 19.0825538635254
207.0 38.27001953125
208.0 4.08694458007813
209.0 19.6251258850098
