#"+EI Scan (rt: 1.696-1.737 min, 8 scans) MIX8-5.D  Subtract "
#Point,X(Thompsons),Y(Counts)
41.0 7184.7265625
42.0 1552.62109375
43.0 1253.39208984375
44.0 1639.98657226563
45.0 117.017784118652
50.0 1104.4072265625
51.0 4454.3828125
52.0 555.57177734375
53.0 200.530883789063
54.0 531.605285644531
55.0 636.823181152344
56.0 4242.8095703125
57.0 510.004211425781
58.1 11667.41796875
59.0 510.784118652344
62.0 68.9209442138672
63.0 243.437606811523
64.0 19.2145595550537
65.0 132.571319580078
65.1 62.8787994384766
67.0 136.459136962891
68.0 353.653503417969
69.0 246.255996704102
70.1 1753.96130371094
71.0 576.910827636719
72.9 41.5089378356934
73.0 62.1335067749023
74.0 382.498168945313
75.0 338.732666015625
76.0 579.187316894531
77.0 10563.693359375
78.0 1182.45031738281
79.0 660.464904785156
81.9 24.4857025146484
82.0 22.6894435882568
84.1 2287.56176757813
85.1 612.379516601563
86.1 92450.515625
87.1 5623.66015625
88.0 124.641906738281
88.9 31.5327167510986
89.0 248.281112670898
90.0 53.3242034912109
91.0 852.665649414063
92.0 87.9528045654297
95.9 79.1023406982422
96.1 26.0641250610352
102.0 64.4424591064453
102.9 180.179092407227
103.0 109.176544189453
104.0 295.884155273438
105.0 4759.5126953125
106.0 780.109497070313
107.0 67.3560485839844
114.9 23.9711036682129
115.0 399.764526367188
116.0 182.088928222656
117.0 375.766662597656
118.0 374.631622314453
118.9 69.004264831543
127.0 42.028881072998
128.0 95.2559356689453
129.0 46.2680397033691
129.9 25.0339126586914
130.0 51.9055938720703
131.0 112.639228820801
132.0 222.616271972656
133.0 228.539733886719
134.0 1478.79418945313
135.0 173.094100952148
144.0 65.7296600341797
144.9 20.7414360046387
146.0 388.904083251953
147.0 210.465530395508
148.0 209.485397338867
148.9 89.3065490722656
160.9 20.5704231262207
162.1 1276.78662109375
163.0 160.14778137207
190.9 28.5289764404297
207.0 16.0634765625
208.0 28.1776733398438
