#"+EI Scan (rt: 2.034-2.081 min, 9 scans) MIX1-4.D  Subtract "
#Point,X(Thompsons),Y(Counts)
41.0 429.493011474609
42.0 3922.552734375
43.0 644.56201171875
44.0 13469.978515625
45.0 449.304718017578
50.0 1129.31262207031
51.0 723.501953125
51.9 89.6768341064453
53.0 69.4202575683594
54.0 131.898208618164
55.0 403.617431640625
56.0 2411.94384765625
57.0 396.236877441406
58.0 909.6103515625
61.0 72.3542709350586
62.0 37.1483001708984
63.0 155.557922363281
65.0 53.3653259277344
68.0 95.8970108032227
70.0 3112.740234375
71.0 421.612579345703
72.1 37092.90234375
73.1 2087.63208007813
74.0 599.510864257813
75.0 2701.98071289063
76.0 637.2080078125
77.0 777.14453125
78.0 120.564414978027
79.0 98.4162902832031
79.1 42.8762321472168
83.9 19.2535438537598
84.9 330.495483398438
85.9 17.6250991821289
86.9 101.404121398926
89.0 227.921737670898
89.9 18.014123916626
91.0 158.214233398438
91.1 56.7310180664063
95.9 32.4489402770996
100.9 42.0108261108398
101.9 86.8553466796875
103.0 467.267700195313
103.9 34.2706527709961
104.0 74.1890563964844
105.0 200.000762939453
109.9 50.5390129089355
110.0 16.8123397827148
111.0 3722.1435546875
111.9 298.807922363281
113.0 1259.19091796875
113.8 46.1513481140137
113.9 60.4281196594238
115.0 193.978698730469
115.9 36.4443550109863
117.0 36.6978988647461
124.9 330.87841796875
126.9 74.7215270996094
129.9 17.8453598022461
131.0 208.107513427734
132.1 17.1311645507813
133.0 482.681457519531
137.9 21.3806762695313
138.1 18.1716442108154
139.0 2229.71704101563
139.9 249.85514831543
141.0 725.904968261719
141.8 17.486873626709
141.9 36.1516494750977
147.0 17.8416786193848
161.0 48.448860168457
162.9 16.9929466247559
165.9 115.639663696289
166.9 38.9031944274902
168.0 292.140563964844
169.9 23.0895729064941
170.0 20.9148006439209
186.0 18.6692733764648
207.0 110.172119140625
208.0 65.0143508911133
209.0 36.5538520812988
