#"+EI Scan (rt: 3.707-3.754 min, 9 scans) MIX6-9.D  Subtract "
#Point,X(Thompsons),Y(Counts)
40.0 36.3800354003906
41.0 900.283081054688
42.0 1833.84594726563
43.0 143.556030273438
44.0 253.809326171875
50.0 248.613693237305
51.0 872.520568847656
52.0 214.282104492188
53.0 41.2355880737305
54.0 126.054618835449
55.0 184.916290283203
56.0 2129.84765625
57.0 335.048217773438
58.0 230.285720825195
62.0 88.1565399169922
63.0 682.227600097656
64.0 185.756774902344
65.0 4902.787109375
66.0 261.230926513672
70.0 83.412971496582
75.0 59.4532203674316
75.9 70.8883438110352
77.0 897.7265625
78.0 377.762145996094
79.0 252.014862060547
86.0 136.364685058594
88.9 143.958602905273
89.0 861.693298339844
90.0 693.928588867188
91.0 55581.375
92.0 4430.013671875
93.0 126.044982910156
102.0 63.6274147033691
103.0 350.281707763672
104.0 231.474227905273
105.0 525.236633300781
115.0 539.654296875
116.0 179.015228271484
117.0 771.153747558594
118.0 443.141540527344
119.0 148.635971069336
120.0 179.449783325195
130.0 146.708221435547
131.0 181.924392700195
131.1 24.3075866699219
132.0 707.552978515625
133.0 171.380798339844
134.0 23.5646076202393
144.0 21.660041809082
146.0 593.405456542969
147.0 27.4550533294678
147.1 363.471252441406
147.2 18.0334873199463
148.1 45849.46484375
149.1 5313.892578125
150.0 259.917510986328
164.9 17.5117130279541
167.0 17.0810127258301
207.0 27.071044921875
208.0 34.2651824951172
224.1 88.9530181884766
