#"+EI Scan (rt: 3.707-3.754 min, 9 scans) MIX6-4.D  Subtract "
#Point,X(Thompsons),Y(Counts)
41.0 891.029479980469
42.0 1849.03625488281
43.0 145.15901184082
44.0 232.589233398438
49.9 282.772979736328
51.0 886.136535644531
52.0 231.689270019531
53.0 40.0652198791504
54.0 126.622100830078
55.0 186.264007568359
56.0 2117.55517578125
57.0 358.605316162109
58.0 216.310546875
61.8 19.1527938842773
62.0 63.509521484375
63.0 690.592041015625
64.0 209.852569580078
65.0 4843.20263671875
66.0 286.3427734375
70.0 86.8542785644531
73.9 18.0370407104492
75.0 55.4996147155762
75.8 20.2162857055664
76.0 69.4101867675781
77.0 917.76953125
78.0 394.156951904297
79.0 273.236724853516
86.1 102.608085632324
89.0 1040.72314453125
90.0 702.0078125
91.0 55171.5390625
92.0 4457.98193359375
93.0 161.667221069336
96.0 19.6799545288086
101.9 55.5671653747559
103.0 383.768951416016
104.0 255.211608886719
105.0 487.294067382813
115.0 526.076965332031
116.0 143.110290527344
116.0 58.4551048278809
117.0 765.681518554688
118.0 404.298706054688
118.9 24.9906311035156
119.0 153.456344604492
120.0 160.151962280273
130.0 171.968826293945
131.0 224.218002319336
132.0 717.126708984375
132.9 141.616516113281
134.0 18.592378616333
144.0 57.3137054443359
146.0 586.052001953125
147.0 34.1388206481934
147.1 369.929809570313
148.1 45554.19140625
149.1 5252.71484375
150.0 273.298736572266
207.0 49.8253784179688
207.9 29.5434684753418
208.0 50.0339431762695
224.1 70.3879699707031
