#"+EI Scan (rt: 2.285-2.326 min, 8 scans) MIX7-1.D  Subtract "
#Point,X(Thompsons),Y(Counts)
41.0 1950.98913574219
42.0 796.554870605469
43.0 1179.43371582031
44.0 2130.20922851563
45.0 50.9886932373047
46.0 142.560516357422
50.0 456.937561035156
51.0 1616.87023925781
51.9 163.646270751953
53.0 165.023101806641
54.0 212.050399780273
54.1 18.9229984283447
55.0 592.018798828125
56.0 2505.10473632813
57.0 525.695068359375
58.0 6328.34228515625
59.0 206.795043945313
63.0 19.3741302490234
65.0 128.798950195313
67.0 177.796630859375
68.0 221.822311401367
69.0 1108.35229492188
70.0 891.742431640625
71.0 766.587341308594
72.0 818.866516113281
72.9 71.2591934204102
73.9 46.7268295288086
75.0 51.340030670166
75.9 213.683349609375
77.0 4706.771484375
78.0 570.542724609375
78.9 31.8417320251465
79.0 414.473510742188
79.9 19.9332408905029
81.0 19.2322273254395
82.0 99.1213989257813
83.1 42.5585327148438
84.0 806.040771484375
85.0 141.095001220703
86.0 133.142288208008
88.9 105.391487121582
91.0 606.804260253906
92.0 18.9135799407959
95.9 20.3506488800049
98.1 23.9606628417969
103.0 170.275848388672
104.0 148.657043457031
105.0 2880.53393554688
106.0 475.126098632813
106.9 23.3469657897949
112.1 1281.76062011719
113.1 269.923431396484
114.1 51682.9765625
115.1 4500.85546875
116.0 252.107345581055
116.9 164.408935546875
118.0 165.106781005859
119.0 20.5795612335205
120.0 113.119003295898
130.0 41.4611206054688
132.0 52.370491027832
132.9 296.981628417969
134.0 1233.05847167969
135.0 132.662902832031
146.0 130.059020996094
148.0 28.0402317047119
160.0 21.0064487457275
162.0 642.62939453125
163.0 73.1342544555664
190.9 19.1775665283203
207.0 20.5626220703125
207.9 24.9848823547363
208.0 23.7618103027344
