#"+EI Scan (rt: 1.696-1.743 min, 9 scans) MIX1-6.D  Subtract "
#Point,X(Thompsons),Y(Counts)
40.0 166.585174560547
41.0 4053.69384765625
42.0 11242.2763671875
43.0 6415.7275390625
44.0 657.693786621094
45.0 173.551345825195
45.2 23.8286151885986
45.4 30.825309753418
49.0 42.0368118286133
50.0 2233.46728515625
51.0 3821.8154296875
52.0 1217.31665039063
53.0 870.710510253906
54.0 1043.35632324219
55.0 1918.45849609375
56.0 30102.701171875
57.1 6999.4130859375
58.1 350213.875
59.1 13212.1552734375
60.0 170.736877441406
61.0 348.285461425781
62.0 1951.89782714844
63.0 6249.349609375
64.0 1850.693359375
65.0 19182.958984375
66.0 1219.17041015625
67.0 99.6129531860352
70.0 57.2141914367676
72.8 18.2098178863525
72.9 69.7601470947266
73.0 56.2334442138672
74.0 665.624267578125
75.0 672.471923828125
75.9 20.6765823364258
76.0 572.355224609375
77.0 1942.63586425781
78.0 647.360656738281
79.0 303.178649902344
79.8 67.5996475219727
79.9 33.2854347229004
80.1 28.3853092193604
84.0 40.6695365905762
84.9 144.362808227539
86.0 406.671875
87.0 457.163635253906
88.0 154.496170043945
89.0 6584.69775390625
90.0 2881.21484375
91.0 26588.85546875
92.0 2901.67504882813
92.9 102.227813720703
93.0 325.186981201172
95.9 14.4762916564941
101.0 18.9228076934814
102.0 320.223266601563
103.0 871.580688476563
104.0 463.783264160156
105.0 2014.16943359375
106.0 207.958541870117
115.0 1446.68505859375
116.0 443.199340820313
117.0 1035.87451171875
118.0 778.939270019531
119.0 13793.3603515625
120.0 1481.43408203125
121.0 169.682586669922
127.0 161.464004516602
128.0 347.878051757813
129.0 238.744934082031
130.0 372.046722412109
131.0 542.138916015625
132.0 560.674438476563
133.0 1094.36730957031
134.0 1345.86413574219
135.0 89.3758544921875
142.9 46.9433517456055
144.0 469.273498535156
145.0 184.689361572266
146.0 1003.25598144531
147.0 1122.07727050781
148.0 793.160522460938
149.0 132.98307800293
158.0 296.859313964844
159.0 138.366119384766
160.0 517.065551757813
161.0 613.148742675781
161.9 38.8149833679199
162.0 1237.33251953125
162.9 18.7722778320313
163.0 139.957321166992
173.0 86.3122863769531
174.0 107.819923400879
175.0 37.9383201599121
176.1 185.464492797852
177.0 229.01091003418
178.0 38.6727180480957
207.9 24.1820163726807
