#"+EI Scan (rt: 3.194-3.241 min, 9 scans) MIX1-4.D  Subtract "
#Point,X(Thompsons),Y(Counts)
41.0 1142.0107421875
42.0 1700.64868164063
43.0 1410.38610839844
44.0 15713.1123046875
45.0 474.540588378906
49.9 101.888641357422
50.0 29.4510364532471
51.0 233.701065063477
51.9 18.480001449585
53.0 234.461074829102
54.0 22.013822555542
55.0 299.50390625
56.0 407.605346679688
57.0 178.513687133789
58.0 115.806182861328
60.9 52.4459915161133
62.0 394.703918457031
63.0 1323.81689453125
63.9 110.620040893555
64.0 93.4864501953125
65.0 1853.548828125
66.0 107.097312927246
67.9 57.8220367431641
69.0 54.2693901062012
70.0 933.593078613281
71.0 111.204223632813
73.8 36.2937927246094
74.0 19.1241149902344
77.0 147.870880126953
79.0 90.6073913574219
84.0 1405.21740722656
85.0 102.981727600098
85.1 77.378173828125
86.1 22526.76171875
87.1 1404.54443359375
88.9 64.0369033813477
91.0 945.938049316406
92.0 139.400848388672
92.9 94.8668518066406
93.0 34.8261566162109
95.9 35.0549736022949
103.0 37.5934638977051
105.0 40.9535026550293
117.9 21.69508934021
119.0 368.895263671875
120.0 158.628143310547
121.0 1514.70947265625
122.0 215.980010986328
132.9 13.1513710021973
135.0 50.7209243774414
146.0 176.579895019531
147.0 149.242431640625
147.9 166.773742675781
149.0 2881.90747070313
150.0 494.3271484375
177.0 59.0017242431641
177.9 43.0995941162109
178.0 23.4519519805908
192.0 148.926544189453
207.0 45.2645263671875
208.0 65.8686370849609
