#"+EI Scan (rt: 1.894-1.987 min, 17 scans) MIX3-1.D  Subtract "
#Point,X(Thompsons),Y(Counts)
41.0 305.596557617188
42.0 707.913208007813
43.0 159.977386474609
44.0 155.467529296875
50.0 213.154754638672
51.0 168.646728515625
52.0 30.745267868042
53.9 9.19805717468262
54.0 10.9083461761475
54.9 121.427581787109
56.0 472.032867431641
56.9 20.6314659118652
57.0 735.072692871094
58.0 47.0315093994141
58.0 662.527160644531
61.9 53.705867767334
63.0 370.887756347656
63.9 10.7099542617798
65.0 754.50244140625
69.9 18.116907119751
70.0 645.376037597656
70.9 27.8210296630859
71.0 119.267021179199
72.1 9835.89453125
73.0 541.74267578125
74.0 9.72628498077393
75.0 173.389068603516
77.0 39.6248626708984
78.0 10.5219860076904
78.9 11.4557323455811
89.0 157.587448120117
90.0 56.0602912902832
91.0 890.155090332031
92.0 60.4262390136719
102.9 9.07568359375
104.9 14.2300844192505
105.0 108.908142089844
110.9 154.183441162109
112.9 9.74402618408203
115.0 44.2407073974609
116.9 9.14152717590332
119.0 521.921569824219
120.0 41.325267791748
121.0 431.998504638672
121.9 9.02254104614258
132.0 9.02667903900146
133.0 20.9968185424805
134.0 124.286933898926
134.9 8.45799255371094
135.0 37.1293983459473
138.8 51.1622047424316
138.9 68.3106536865234
140.9 17.140869140625
147.0 51.9454078674316
149.0 1128.75378417969
150.0 111.282234191895
162.0 138.944931030273
192.0 35.7919807434082
207.0 36.4539794921875
207.9 41.1989059448242
