#"+EI Scan (rt: 2.116-2.180 min, 12 scans) MIX4-1.D  Subtract "
#Point,X(Thompsons),Y(Counts)
41.0 498.629058837891
42.0 598.255004882813
43.0 373.031829833984
44.0 55.995361328125
45.0 12.7553606033325
47.0 70.9988174438477
49.9 189.775573730469
51.0 501.356201171875
52.0 92.2931137084961
53.0 169.368133544922
53.9 28.4170665740967
55.0 325.680450439453
56.0 2410.50122070313
57.0 691.217590332031
58.1 14989.26953125
59.0 651.136169433594
62.0 13.6348962783813
63.0 308.763702392578
64.0 50.3940773010254
65.0 676.233642578125
69.0 13.4502878189087
70.0 33.2469520568848
71.0 320.022735595703
74.0 14.1390085220337
75.0 1120.20874023438
76.0 96.0288391113281
77.0 1283.36840820313
78.0 371.283477783203
79.0 570.374816894531
84.0 4.01170921325684
85.0 248.254379272461
86.0 237.41291809082
89.0 632.004699707031
90.0 81.221061706543
91.0 1952.388671875
92.0 112.59073638916
95.7 13.4170875549316
102.0 73.0621719360352
102.9 13.5608673095703
103.0 532.880798339844
104.0 113.349967956543
105.0 1431.99890136719
106.0 147.428894042969
115.0 195.941223144531
117.0 60.3874168395996
119.0 6128.22314453125
120.0 597.859680175781
120.9 13.2218790054321
128.0 55.3759651184082
129.0 51.0215721130371
130.9 25.0810775756836
131.0 182.408584594727
133.0 843.099792480469
134.0 177.357177734375
148.0 83.457275390625
160.0 12.7712564468384
171.9 13.554368019104
191.0 164.136474609375
207.0 23.6749267578125
209.0 52.964111328125
