#"+EI Scan (rt: 2.955-3.002 min, 9 scans) MIX4-3.D  Subtract "
#Point,X(Thompsons),Y(Counts)
41.0 552.715270996094
42.0 4386.9619140625
43.0 713.704467773438
44.0 3076.24487304688
45.0 246.824432373047
50.0 397.901000976563
51.0 587.152648925781
52.0 130.739181518555
53.0 560.184387207031
54.0 298.429809570313
55.0 920.741943359375
56.0 3448.99365234375
57.0 1518.4443359375
57.9 19.8069534301758
58.0 322.368988037109
60.9 20.317081451416
61.0 188.773468017578
62.0 1055.99084472656
63.0 3060.57104492188
64.0 418.425659179688
65.0 3316.70654296875
66.0 282.200225830078
68.0 35.8308792114258
69.0 18.8448543548584
70.0 2506.4384765625
71.1 1008.63238525391
72.1 78987.046875
73.1 3925.64282226563
74.0 314.789093017578
75.0 123.144393920898
76.0 99.5489730834961
77.0 481.347473144531
78.0 109.606811523438
79.0 222.620147705078
88.9 190.542297363281
89.9 40.9959144592285
91.0 1760.69360351563
91.9 162.64778137207
92.0 113.688446044922
93.0 41.5785675048828
96.0 12.527042388916
102.0 18.8703536987305
102.7 26.3017349243164
102.8 16.8549747467041
103.0 40.4570999145508
103.9 77.7687454223633
104.9 78.7026596069336
105.0 109.975059509277
118.0 84.5915222167969
118.9 61.3050384521484
119.0 570.499572753906
120.0 322.912811279297
121.0 2154.05078125
122.0 376.857269287109
127.0 61.6917953491211
132.9 41.0140151977539
133.0 83.144775390625
135.0 961.462219238281
136.0 68.7437286376953
145.9 22.9166011810303
146.9 211.843307495117
148.0 153.054672241211
149.0 2732.64575195313
150.0 300.692169189453
159.9 43.9979858398438
161.9 189.615798950195
162.1 18.0142421722412
164.0 1869.73181152344
165.0 179.883056640625
172.0 41.1759643554688
176.0 157.764343261719
177.0 125.265190124512
178.0 355.162658691406
190.0 105.527442932129
190.9 102.657608032227
203.9 38.7185745239258
207.0 14.396240234375
208.0 33.3501052856445
208.9 32.3288803100586
