#"+EI Scan (rt: 1.696-1.742 min, 9 scans) MIX1-2.D  Subtract "
#Point,X(Thompsons),Y(Counts)
40.0 356.552581787109
41.0 4030.9326171875
42.0 11021.703125
43.0 6232.32958984375
44.0 693.657531738281
44.9 20.751106262207
45.0 102.098114013672
45.1 42.7053985595703
45.5 36.6124114990234
48.9 18.9427089691162
50.0 2216.68676757813
51.0 3802.37231445313
52.0 1182.38256835938
53.0 862.920654296875
54.0 1054.74389648438
55.0 1948.59228515625
56.0 30328.056640625
57.0 6695.06201171875
58.1 344695.4375
59.1 12952.271484375
60.0 194.606170654297
61.0 335.938507080078
62.0 1859.74169921875
63.0 6268.501953125
64.0 1790.82434082031
65.0 18902.609375
66.0 1180.01184082031
66.9 55.3600807189941
67.0 42.0896911621094
70.0 19.7386779785156
71.0 17.316047668457
72.9 91.6997985839844
73.0 21.2856063842773
74.0 686.384521484375
75.0 666.573791503906
76.0 589.716064453125
77.0 1919.49157714844
78.0 621.347106933594
79.0 310.316101074219
79.8 23.6012802124023
80.1 27.1048774719238
85.0 138.707092285156
85.9 30.9112644195557
86.0 372.325500488281
86.9 176.322814941406
87.0 246.925216674805
87.9 21.9460525512695
88.0 93.9985656738281
88.1 31.3549575805664
89.0 6506.18212890625
90.0 2777.83569335938
91.0 25983.0234375
92.0 2739.52075195313
93.0 418.968994140625
95.9 41.9970397949219
101.0 21.1359195709229
102.0 318.591522216797
103.0 858.009155273438
104.0 492.784240722656
105.0 2001.41528320313
106.0 213.983840942383
115.0 1417.72473144531
116.0 367.519714355469
116.1 64.0149536132813
117.0 997.064147949219
118.0 774.205078125
119.0 13878.580078125
120.0 1452.03173828125
121.0 188.400665283203
127.0 150.201797485352
128.0 362.285583496094
129.0 117.851348876953
129.0 124.403717041016
130.0 367.657592773438
131.0 548.580322265625
132.0 528.042114257813
133.0 1052.69250488281
134.0 1437.62670898438
135.0 66.4665069580078
143.0 37.7687568664551
144.0 527.988830566406
145.0 181.262847900391
145.9 35.0318870544434
146.0 978.059020996094
147.0 1155.07348632813
148.0 830.999816894531
149.0 161.888732910156
158.0 253.382385253906
159.0 150.310119628906
159.9 55.8539199829102
160.0 464.219390869141
161.0 595.835388183594
162.1 1273.46435546875
163.0 139.649963378906
173.0 42.8820343017578
174.0 101.520355224609
175.0 77.0690231323242
176.0 184.94743347168
177.0 92.4928283691406
177.1 130.727081298828
178.0 16.9926376342773
208.0 55.3218078613281
209.0 18.5302085876465
