#"+EI Scan (rt: 3.369-3.409 min, 8 scans) DIBUTYLONE-2.D  Subtract "
#Point,X(Thompsons),Y(Counts)
41.0 1777.50463867188
42.0 7474.85791015625
43.0 1842.849609375
44.0 3343.47583007813
45.0 426.98095703125
50.0 472.319519042969
50.9 33.9092216491699
51.0 807.80419921875
52.0 186.732238769531
52.9 35.9388389587402
53.0 688.422729492188
54.0 297.491790771484
55.0 989.428405761719
56.0 4101.89306640625
57.0 459.313079833984
58.1 1668.28955078125
61.0 231.024307250977
62.0 1428.82312011719
63.0 4495.6435546875
64.0 635.81591796875
65.0 5590.7451171875
66.0 478.018981933594
67.0 101.725601196289
68.0 719.063781738281
69.0 714.894104003906
70.1 3420.08569335938
71.1 13045.892578125
72.0 844.3369140625
74.0 343.570068359375
74.9 32.2925224304199
75.0 101.971908569336
76.0 188.840728759766
77.0 763.87158203125
78.0 221.056869506836
79.0 399.288208007813
82.0 124.113822937012
84.1 3423.224609375
85.1 1349.73327636719
86.1 150473.1875
87.1 8871.03125
88.1 134.056182861328
88.2 101.807083129883
88.9 238.702621459961
90.0 86.5700988769531
91.0 2087.49975585938
92.0 423.684112548828
92.9 67.6844177246094
94.1 19.7086639404297
94.3 22.9489669799805
101.4 28.2841110229492
101.6 18.9846000671387
101.8 29.4944400787354
101.9 25.2807998657227
102.0 25.2625331878662
102.2 62.7747573852539
102.4 32.6384506225586
102.8 41.4426536560059
103.0 280.630920410156
104.0 171.10954284668
105.0 329.854064941406
106.0 19.8580169677734
114.9 101.93936920166
115.9 20.294059753418
116.9 48.627613067627
117.0 50.5612144470215
117.9 71.7048645019531
118.1 37.7304039001465
119.0 688.060974121094
120.0 557.5576171875
121.0 4597.6953125
122.0 517.534973144531
131.0 145.404174804688
132.0 123.235931396484
132.9 59.7168579101563
133.0 83.7439422607422
133.9 23.767463684082
135.0 1493.05871582031
136.0 126.662788391113
145.0 80.2311706542969
145.9 97.9360046386719
146.9 222.936218261719
147.0 318.75732421875
147.9 19.5290908813477
148.0 193.334716796875
148.1 19.0860233306885
149.0 6352.47265625
150.0 604.293640136719
151.0 19.727029800415
160.0 102.763458251953
160.1 61.5178909301758
161.0 104.337577819824
162.0 266.922332763672
162.9 22.1875171661377
163.0 73.1694030761719
163.9 45.7731323242188
173.9 20.8708972930908
175.0 225.379440307617
176.0 175.952423095703
176.9 20.2601432800293
177.0 182.606903076172
178.0 844.075317382813
179.0 60.7953338623047
188.0 54.9779205322266
190.0 389.845458984375
191.0 170.849044799805
192.0 219.342681884766
204.0 311.226287841797
205.0 21.7916698455811
206.0 377.461395263672
207.0 63.4530258178711
233.0 20.5667572021484
