#"+EI Scan (rt: 3.369-3.410 min, 8 scans) DIBUTYLONE-10.D  Subtract "
#Point,X(Thompsons),Y(Counts)
40.0 68.4867858886719
41.0 1765.51708984375
42.0 7570.07958984375
43.0 1808.58752441406
44.0 3411.09033203125
45.0 396.629425048828
46.1 23.0429306030273
50.0 451.163635253906
51.0 843.323059082031
52.0 159.581878662109
53.0 783.952392578125
54.0 254.504302978516
55.0 932.051208496094
56.0 4161.7255859375
57.0 426.122772216797
58.1 1724.31921386719
61.0 217.391540527344
62.0 1383.10632324219
63.0 4531.77783203125
64.0 639.552673339844
65.0 5739.36669921875
66.0 469.287292480469
67.0 117.407806396484
68.0 703.020568847656
69.0 755.993957519531
70.1 3525.7744140625
71.1 13478.1474609375
72.1 879.19384765625
73.2 20.7022686004639
74.0 316.821990966797
74.1 25.8804416656494
75.0 112.463455200195
76.0 211.081390380859
77.0 793.314697265625
78.0 227.205749511719
79.0 408.326965332031
82.0 99.2773056030273
84.1 3315.91357421875
85.1 1356.447265625
86.1 152497.484375
87.1 9159.390625
88.1 266.522888183594
88.9 22.8660411834717
89.0 229.207565307617
90.0 93.7860641479492
91.0 2135.50537109375
92.0 424.897766113281
93.0 66.207275390625
94.0 24.3749332427979
94.1 21.9542751312256
94.6 23.6792659759521
101.4 23.1359539031982
101.7 52.5478134155273
102.0 46.1339302062988
102.2 75.4260864257813
103.0 323.802185058594
104.0 201.529846191406
105.0 317.400848388672
115.0 91.0537872314453
116.9 24.9025726318359
117.0 64.5809936523438
118.0 98.7096557617188
118.9 30.0226364135742
119.0 652.402526855469
120.0 549.467102050781
121.0 4636.29150390625
122.0 574.297973632813
131.0 149.168823242188
132.0 131.240661621094
133.0 121.159515380859
134.0 42.8941116333008
135.0 1528.26220703125
136.0 103.777984619141
145.0 47.428596496582
146.0 52.1083908081055
146.1 20.9595718383789
147.0 582.717407226563
148.0 217.054504394531
149.0 6422.4208984375
150.0 622.215576171875
160.0 126.382781982422
161.0 66.8728561401367
162.0 257.857666015625
163.0 50.0313262939453
173.9 19.196949005127
175.0 291.500457763672
176.0 161.176239013672
177.0 197.581893920898
178.1 872.5537109375
179.1 42.4997863769531
188.0 78.5797500610352
190.0 388.155151367188
191.0 170.930084228516
192.0 189.686019897461
204.0 291.732788085938
206.0 348.277008056641
207.0 49.8803100585938
