#"+EI Scan (rt: 1.772-1.813 min, 8 scans) 3-METHYLETHCATH-1.D  Subtract "
#Point,X(Thompsons),Y(Counts)
41.0 2849.79272460938
42.0 12478.458984375
43.0 2365.603515625
44.1 61291.09765625
45.0 1815.90563964844
50.0 1279.88269042969
51.0 2442.08203125
52.0 791.572326660156
53.0 636.747863769531
54.0 501.8193359375
55.0 1432.97631835938
56.0 6888.5712890625
57.0 1082.6943359375
58.0 89.0975799560547
58.9 53.9289512634277
59.0 21.25026512146
61.0 135.819595336914
62.0 1033.27722167969
63.0 3837.7099609375
64.0 1181.88806152344
65.0 13296.05859375
66.0 847.917541503906
67.0 20.32301902771
68.0 432.459289550781
69.0 190.148483276367
69.1 29.1801471710205
70.1 9390.048828125
71.1 1780.62438964844
72.1 220465.875
73.1 11100.50390625
74.0 557.653503417969
74.9 23.8654518127441
75.0 408.616668701172
76.0 384.715637207031
77.0 1740.46228027344
78.0 487.708740234375
79.0 350.357421875
85.0 20.1233673095703
86.0 195.637756347656
87.0 263.408905029297
88.0 87.6592712402344
89.0 4583.42431640625
90.0 1912.71862792969
91.1 21438.626953125
92.0 2206.27783203125
93.0 579.399841308594
102.0 201.007629394531
103.0 705.071838378906
104.0 374.766479492188
105.0 1646.20446777344
106.0 180.040222167969
115.0 1094.62255859375
116.0 370.566711425781
117.0 1006.81365966797
118.0 664.360534667969
119.0 9590.78515625
120.0 1150.8759765625
120.9 19.7989864349365
121.0 50.4380569458008
127.0 93.1811676025391
128.0 250.635391235352
128.9 72.26708984375
129.0 154.448425292969
130.0 346.002960205078
131.0 829.783996582031
132.0 310.030670166016
133.0 591.055053710938
134.0 70.1369476318359
143.0 23.5126152038574
144.0 212.14567565918
145.0 140.859436035156
146.0 1343.4814453125
147.0 811.65185546875
148.0 37.8091812133789
148.1 1694.89428710938
149.0 214.255157470703
158.0 300.327941894531
159.0 19.4806079864502
160.0 337.737487792969
161.0 106.001846313477
162.0 84.5826873779297
162.9 29.1181011199951
163.0 163.394332885742
172.0 20.564115524292
172.1 50.4457588195801
173.0 67.7608337402344
174.0 206.905288696289
175.0 171.782974243164
176.1 507.594512939453
177.0 23.5762748718262
190.1 127.517082214355
191.0 98.669189453125
207.0 21.8734741210938
