
Star Data Extractor Tool
     Image: [1] m23_3.5_071.fit
     Stars Found: 2508 (good stars)
     Radius of star diaphragm: 5
     Sky annulus inner radius: 7
     Sky annulus outer radius: 11
     Threshold factor: High = 1.04
       X	       Y	   Sigma	    FWHM	 Sky ADU	   Star ADU
  746.58	  459.64	    2.00	    4.70	   760.8	  1200972.0
  547.57	  493.95	    1.50	    3.52	   763.2	   714867.4
  462.38	  523.01	    1.50	    3.52	   769.0	   707353.7
  230.97	  347.20	    1.69	    3.98	   756.7	   587742.8
  112.45	  420.52	    1.97	    4.64	   760.1	   581211.0
  153.63	  614.49	    1.80	    4.23	   743.0	   526216.6
  957.99	  389.36	    1.16	    2.74	   720.9	   508107.5
  500.73	  376.04	    1.32	    3.09	   747.8	   467604.9
  550.72	  571.94	    1.36	    3.20	   752.6	   441891.8
  369.82	  409.03	    1.44	    3.39	   775.9	   412514.2
  580.00	  819.65	    1.55	    3.64	   726.0	   383154.4
  479.33	  572.02	    1.47	    3.45	   757.9	   374358.2
  336.75	  573.45	    1.49	    3.51	   746.5	   356910.2
  586.45	   96.41	    1.58	    3.72	   724.8	   349010.1
  366.07	  362.05	    1.57	    3.68	   762.8	   343898.8
  700.99	  686.01	    1.31	    3.08	   732.3	   342701.3
  580.56	  561.08	    1.32	    3.11	   741.2	   342450.0
  457.39	  309.47	    1.49	    3.51	   741.6	   327616.3
   83.07	  774.68	    1.87	    4.39	   726.3	   324352.9
 1003.41	  330.14	    1.32	    3.11	   706.4	   318388.6
  342.10	  460.34	    1.55	    3.64	   764.8	   316395.3
  757.90	  281.49	    1.30	    3.05	   723.8	   313490.3
  676.07	  464.36	    1.26	    2.97	   761.6	   312211.1
  447.49	  738.34	    1.57	    3.68	   740.6	   288812.2
  539.54	  426.10	    1.31	    3.09	   741.4	   262292.2
  359.43	  497.46	    1.59	    3.74	   757.4	   218534.6
  860.07	  632.30	    1.28	    3.01	   716.2	   214571.4
  496.51	  628.96	    1.50	    3.53	   734.8	   211673.5
  621.56	  446.08	    1.26	    2.95	   740.4	   205092.9
  922.94	  603.64	    1.29	    3.03	   716.2	   199983.6
  453.51	  390.57	    1.49	    3.50	   741.7	   199532.9
  202.58	  647.99	    1.71	    4.02	   732.3	   197060.6
  750.18	  556.76	    1.29	    3.04	   725.0	   193093.4
  413.63	  887.82	    1.83	    4.29	   728.7	   192242.0
  643.40	  447.43	    1.36	    3.19	   741.8	   190154.6
  257.60	  476.91	    1.65	    3.87	   748.1	   182226.0
  267.18	  447.19	    1.62	    3.80	   765.6	   178752.8
  265.17	  446.23	    2.18	    5.12	   760.9	   176821.8
  448.88	  448.79	    1.39	    3.26	   757.7	   174787.9
  813.68	  680.96	    1.37	    3.22	   719.6	   170416.3
  410.77	  703.95	    1.55	    3.63	   729.7	   162574.2
  380.34	  370.00	    1.53	    3.60	   753.7	   160636.4
  784.55	  537.39	    1.36	    3.19	   719.0	   150569.5
  485.09	  477.30	    1.33	    3.12	   748.7	   149485.4
  420.77	  334.92	    1.38	    3.24	   733.7	   149145.4
  438.49	  422.28	    1.82	    4.27	   751.9	   144206.7
  716.04	  680.26	    1.38	    3.24	   727.9	   144068.5
  695.95	  175.75	    1.32	    3.11	   719.0	   137601.6
  541.20	  475.65	    1.31	    3.07	   748.7	   133487.7
  321.19	  254.86	    1.62	    3.80	   738.2	   129951.7
  602.34	  636.84	    1.44	    3.38	   733.9	   128089.2
  523.07	  596.28	    1.36	    3.20	   738.5	   123508.8
  252.54	  572.01	    1.66	    3.91	   741.6	   120428.5
  155.56	  402.38	    1.73	    4.06	   732.5	   118201.8
  601.98	  259.71	    1.30	    3.06	   726.0	   114980.0
  875.04	  572.38	    1.12	    2.64	   715.9	   114344.2
  551.18	  398.74	    1.28	    3.02	   737.8	   109719.5
  932.55	  979.31	    1.58	    3.71	   694.0	   109543.4
  946.98	  629.08	    1.30	    3.05	   704.2	   107489.4
  899.38	  838.80	    1.59	    3.75	   707.5	   107280.0
  812.55	  169.38	    1.43	    3.36	   713.5	   105009.5
  874.58	  913.55	    1.66	    3.89	   700.8	   101941.6
   46.09	  248.02	    1.93	    4.53	   721.9	   101800.0
  399.54	  966.24	    1.78	    4.19	   714.5	   101450.1
  455.56	  598.62	    1.60	    3.77	   740.0	   101005.5
  660.95	  666.49	    1.36	    3.18	   721.6	    98856.1
   41.05	  872.92	    1.94	    4.57	   698.3	    98628.7
  601.44	  308.12	    1.35	    3.17	   730.6	    95836.7
  781.95	  426.08	    1.24	    2.92	   720.3	    95642.2
  215.52	   77.10	    1.78	    4.18	   716.1	    95507.2
  787.60	  652.57	    1.47	    3.45	   720.4	    95197.9
  228.77	  627.56	    1.67	    3.93	   733.1	    94739.9
  625.60	  611.50	    1.42	    3.35	   727.1	    91558.6
  721.31	  289.10	    1.24	    2.92	   720.4	    90669.7
  265.64	  351.52	    1.61	    3.79	   742.0	    86198.0
  230.21	  631.15	     n/a	     n/a	   731.7	    84680.1
  457.06	  500.99	    1.38	    3.23	   753.1	    83144.6
  509.01	  501.04	    1.31	    3.07	   745.4	    82703.5
  396.06	  124.32	    1.57	    3.70	   721.6	    80540.1
  757.70	  209.97	    1.31	    3.07	   711.3	    76909.4
  858.80	  616.24	    1.32	    3.10	   716.6	    76571.3
   58.80	  925.03	    2.00	    4.69	   697.3	    76480.8
  410.17	  319.37	    1.79	    4.20	   728.5	    75627.0
  330.03	  622.97	    1.58	    3.71	   740.2	    73510.8
   99.06	  657.47	    1.88	    4.43	   710.1	    73360.5
  127.70	  183.57	    1.73	    4.06	   724.8	    72787.6
  364.82	  465.20	    1.33	    3.13	   755.6	    71743.4
  686.00	  415.01	    1.23	    2.88	   730.6	    71313.3
  854.10	  601.06	    1.27	    2.99	   718.5	    69468.2
  427.64	  148.44	    1.61	    3.78	   721.9	    69185.0
  402.17	  180.88	    1.53	    3.60	   726.6	    67661.7
  540.60	  453.43	    1.44	    3.38	   745.1	    65200.2
  750.52	  586.06	    1.32	    3.11	   722.8	    65159.7
  829.94	  910.54	    1.60	    3.76	   702.6	    62328.9
  698.96	  307.70	    1.31	    3.08	   718.1	    62179.2
  679.59	  173.21	     n/a	     n/a	   717.7	    61972.9
  420.65	  857.36	    1.64	    3.84	   713.6	    61781.3
  679.68	  172.19	    1.39	    3.28	   718.5	    61619.5
  737.54	  696.83	     n/a	     n/a	   720.9	    61169.6
  131.10	  850.64	    1.94	    4.55	   704.6	    60933.3
  403.44	  941.50	    1.84	    4.31	   715.4	    60915.9
  568.73	  337.23	    1.37	    3.22	   726.9	    59156.7
  490.31	   47.04	    1.51	    3.54	   709.1	    59139.5
  832.91	  613.54	    1.32	    3.09	   718.8	    59139.3
  738.30	  695.75	    1.51	    3.56	   723.1	    58089.4
  786.68	  181.10	    1.30	    3.06	   710.2	    56755.2
  510.04	  179.33	    1.43	    3.36	   717.3	    56727.6
  808.47	  976.57	    1.68	    3.96	   697.2	    56360.4
  674.36	  800.91	    1.55	    3.64	   715.5	    54720.0
  145.74	   67.64	    1.75	    4.12	   717.8	    54215.2
  267.29	  479.99	    1.70	    4.00	   741.2	    53869.4
  741.75	  696.18	     n/a	     n/a	   721.5	    53066.6
  472.87	  242.84	    1.36	    3.20	   718.3	    51499.1
  676.43	  569.56	    1.42	    3.33	   724.8	    51186.0
  456.47	  302.14	     n/a	     n/a	   753.2	    50727.1
  574.21	   78.88	    1.48	    3.49	   712.4	    50256.6
  489.05	  571.67	    1.53	    3.59	   750.0	    49571.7
  521.11	  626.65	    1.40	    3.30	   736.7	    48193.3
  652.41	  157.58	    1.45	    3.40	   717.5	    48020.2
  646.16	  704.30	    1.71	    4.02	   725.8	    47676.4
  309.35	  390.00	    1.66	    3.91	   747.2	    47263.0
  486.55	  514.91	    1.44	    3.39	   746.8	    46958.0
  161.64	  542.02	    1.68	    3.94	   726.1	    45809.0
  689.97	  769.98	    1.45	    3.41	   716.4	    45572.9
  403.17	  363.60	    1.52	    3.57	   736.6	    45320.5
  492.34	  551.56	    1.46	    3.44	   739.6	    45095.2
  305.64	  445.95	    1.54	    3.63	   752.5	    44940.2
  895.94	  614.00	    1.31	    3.08	   710.6	    44852.8
  581.52	  705.47	    1.50	    3.53	   722.1	    44312.5
  935.50	  683.92	    1.56	    3.66	   700.3	    44116.1
  714.03	  630.99	    1.34	    3.15	   723.2	    43943.3
  961.52	  591.96	    1.40	    3.30	   701.2	    43827.0
  720.46	  486.32	    1.44	    3.38	   730.9	    43774.4
  723.84	  435.22	    1.22	    2.88	   728.2	    43654.7
  397.45	  653.38	    1.59	    3.73	   730.2	    43618.1
  310.51	   44.40	    1.77	    4.16	   713.6	    43232.3
  184.41	  626.34	     n/a	     n/a	   719.3	    42622.1
  992.99	  724.03	    1.42	    3.35	   704.5	    42495.0
  943.31	  577.95	    1.35	    3.18	   704.7	    42266.1
  407.15	  450.43	    1.47	    3.44	   752.5	    42205.5
   73.33	  119.07	    1.94	    4.55	   711.2	    41763.9
  105.60	  862.38	    1.84	    4.33	   701.7	    41334.3
  495.40	  672.85	    1.53	    3.59	   730.9	    40881.5
  456.43	  301.43	    1.54	    3.61	   751.9	    40756.2
   18.93	  839.16	    1.95	    4.59	   696.2	    40751.4
  217.43	  645.43	    1.78	    4.19	   718.3	    40096.0
  432.50	  809.94	    1.68	    3.96	   714.4	    39923.2
  796.93	  135.77	    1.36	    3.18	   707.1	    39835.0
  913.26	  550.13	    1.25	    2.94	   706.4	    39099.7
   46.61	  647.05	    1.78	    4.18	   706.7	    38585.0
  528.60	  630.03	    1.35	    3.17	   737.4	    38301.7
  671.97	  444.90	    1.27	    2.99	   732.5	    38116.5
  675.02	  392.34	    1.27	    2.98	   728.5	    37862.2
  219.84	   53.11	    1.66	    3.89	   709.2	    36890.1
  185.68	  624.47	    1.79	    4.21	   721.0	    36659.5
  234.86	  492.93	    1.63	    3.83	   733.5	    36659.4
  185.69	  624.47	    1.80	    4.23	   721.0	    36654.5
  177.35	  328.18	    1.83	    4.29	   725.8	    35935.9
  354.75	  684.91	    1.55	    3.63	   731.3	    35816.5
  303.62	  880.92	    1.75	    4.11	   714.0	    35682.4
  196.67	  574.36	    1.69	    3.98	   719.0	    35208.9
  438.56	  825.58	    1.68	    3.95	   723.4	    35091.9
  260.54	  284.40	    1.57	    3.68	   733.6	    34907.7
  255.74	  670.56	    1.73	    4.07	   724.5	    34886.1
  787.33	  594.77	     n/a	     n/a	   722.7	    34883.7
  644.58	  342.92	    1.28	    3.00	   724.5	    34745.8
  816.06	  895.64	    1.51	    3.56	   703.8	    34711.9
  457.32	  253.57	     n/a	     n/a	   722.3	    34711.7
  260.46	  284.93	    1.57	    3.68	   734.3	    34693.7
   53.34	  821.88	    2.05	    4.82	   695.8	    34559.8
  716.73	  744.92	    1.37	    3.21	   714.9	    34349.4
  755.30	  324.90	    1.28	    3.00	   724.7	    34259.4
  429.37	  702.51	    1.58	    3.71	   732.1	    34088.0
  790.69	  593.90	     n/a	     n/a	   726.2	    33808.3
  790.06	  593.28	    1.30	    3.05	   727.4	    33630.3
  457.35	  253.02	    1.52	    3.57	   723.0	    33584.5
  671.06	  469.98	    1.27	    2.99	   754.4	    32818.4
   41.04	  719.92	    1.92	    4.52	   704.5	    31735.2
  538.01	  238.08	    1.33	    3.13	   715.0	    31515.2
  773.49	  918.44	    1.67	    3.92	   701.8	    30906.8
  445.58	  649.97	    1.52	    3.58	   728.2	    30757.8
  412.46	  771.92	    1.69	    3.98	   722.2	    30609.9
  822.48	  625.90	    1.41	    3.31	   720.9	    30583.2
  432.61	  891.56	     n/a	     n/a	   723.7	    29842.2
  214.22	   88.87	    1.85	    4.35	   718.7	    29639.2
  215.22	  552.13	    1.79	    4.21	   723.4	    29632.8
  980.52	  892.95	    1.60	    3.75	   697.2	    29587.5
  586.04	  359.97	    1.28	    3.00	   743.1	    29520.5
  351.69	  972.48	    1.81	    4.26	   709.8	    29339.9
  220.25	  717.10	    1.75	    4.11	   725.7	    29270.7
  432.09	  891.21	    1.75	    4.10	   724.8	    28871.2
  540.74	  565.92	    1.34	    3.15	   748.4	    28029.9
  961.56	   32.59	    1.59	    3.73	   689.9	    28025.8
  298.90	  733.76	    1.71	    4.02	   727.6	    27953.0
  678.49	  191.40	    1.48	    3.48	   717.6	    27785.6
  275.53	  615.56	    1.77	    4.17	   727.1	    27447.7
  707.05	  889.71	    1.55	    3.65	   709.7	    27321.7
  356.97	   49.40	    1.65	    3.87	   721.9	    27003.0
  485.05	  730.66	    1.57	    3.68	   728.6	    26967.9
  594.16	  366.52	    1.54	    3.62	   739.5	    26881.4
  366.23	  999.16	    1.86	    4.37	   702.1	    26852.6
  924.34	   66.04	    1.46	    3.42	   694.7	    26106.1
  651.05	  720.65	    1.48	    3.48	   720.5	    25772.7
  392.59	  493.04	    1.43	    3.36	   750.1	    25738.1
  231.57	  634.32	    1.90	    4.46	   735.4	    25597.8
  532.32	  526.00	    1.39	    3.26	   748.4	    25561.3
  112.35	  323.98	    1.85	    4.34	   724.6	    25538.7
  595.90	  749.63	    1.53	    3.59	   718.6	    25382.7
  457.11	  404.35	    1.37	    3.23	   742.7	    25367.3
  868.27	  102.03	    1.47	    3.46	   699.5	    24885.7
  880.97	  565.92	    1.17	    2.75	   716.0	    24555.6
  100.44	  737.07	    1.99	    4.68	   712.8	    24265.6
  582.02	  446.32	    1.33	    3.13	   739.3	    24217.1
  100.25	  737.01	    1.97	    4.63	   713.3	    24209.5
  804.95	  117.51	    2.33	    5.49	   707.5	    24170.9
  234.49	   23.63	    1.75	    4.11	   703.1	    24034.9
  804.94	  117.40	    2.36	    5.54	   707.5	    24012.2
  161.09	   60.05	    1.80	    4.23	   707.5	    23909.8
  704.39	  736.10	    1.49	    3.49	   716.5	    23585.0
  224.27	  945.04	    1.99	    4.68	   698.2	    23415.5
  102.17	  735.63	     n/a	     n/a	   713.4	    23022.8
  478.50	  590.32	    1.57	    3.68	   739.3	    22944.0
  703.02	  270.51	    1.25	    2.95	   719.5	    22546.0
  519.63	  715.44	    1.52	    3.57	   723.9	    22459.1
  987.27	  831.79	    1.62	    3.80	   708.4	    22453.2
  879.53	  431.42	    1.36	    3.19	   712.6	    22423.9
  817.17	  269.75	    1.28	    3.01	   712.1	    22394.8
  849.59	  852.49	    1.68	    3.94	   704.3	    22213.5
   79.12	  377.45	    2.08	    4.89	   723.1	    22058.9
  686.97	  850.70	    1.53	    3.59	   705.1	    22005.2
  517.32	  230.10	    1.58	    3.71	   725.4	    21970.3
  273.48	  457.43	    1.85	    4.36	   752.9	    21893.0
  664.92	  237.74	    1.29	    3.04	   715.3	    21861.2
  583.76	  470.07	    1.29	    3.03	   736.5	    21641.6
  427.02	  431.32	    1.40	    3.29	   751.9	    21168.4
  771.41	  330.33	    1.39	    3.27	   717.4	    20757.4
  897.94	  360.64	    1.21	    2.85	   708.9	    20671.0
  322.74	  690.93	    1.62	    3.80	   722.7	    20632.1
  667.96	  344.72	    1.26	    2.96	   716.9	    20619.0
  277.44	  101.12	    1.75	    4.12	   714.3	    20590.4
  579.43	  239.42	    1.49	    3.51	   714.3	    20482.0
  661.55	  104.71	    1.41	    3.32	   707.3	    20434.4
  334.65	  902.34	    1.73	    4.06	   712.3	    20372.0
  825.47	  105.64	    1.51	    3.55	   704.9	    20370.9
  334.67	  902.32	    1.75	    4.10	   712.4	    20367.7
  874.33	  490.05	    1.23	    2.90	   710.2	    20315.9
  344.74	  611.36	    1.51	    3.56	   744.3	    20287.2
  769.82	  832.12	    1.49	    3.49	   706.5	    20089.7
  444.35	  301.05	    1.54	    3.61	   736.6	    19948.3
  354.43	  605.49	    1.75	    4.12	   733.9	    19843.9
  359.49	  487.97	    1.64	    3.86	   750.4	    19825.8
  556.97	  271.59	    1.34	    3.14	   721.8	    19738.5
  507.73	  233.08	    1.39	    3.27	   728.3	    19660.0
  467.06	  488.70	    1.38	    3.23	   749.6	    19603.1
  463.73	  428.19	    1.36	    3.20	   746.9	    19551.5
  730.32	  741.83	    1.69	    3.97	   712.4	    19386.3
  729.97	  663.25	    1.61	    3.78	   721.3	    19366.8
   48.14	  823.20	     n/a	     n/a	   697.9	    19143.3
  324.82	  509.08	    1.46	    3.44	   734.5	    19030.6
  684.89	  671.27	    1.54	    3.62	   723.6	    18947.4
  284.06	  806.48	    1.90	    4.47	   710.6	    18945.0
  341.69	  728.54	    1.59	    3.75	   718.9	    18911.0
  359.58	  715.70	    1.72	    4.04	   722.4	    18778.9
  359.57	  716.30	    1.56	    3.68	   722.3	    18563.0
  941.67	  514.98	    1.32	    3.10	   703.6	    18540.0
  359.67	  716.11	    1.62	    3.80	   722.6	    18503.6
  245.32	  847.99	     n/a	     n/a	   715.9	    18500.7
  807.32	  632.47	    1.52	    3.57	   717.7	    18386.5
  233.37	   93.10	    1.92	    4.51	   715.5	    18198.8
  820.02	  511.90	    1.34	    3.16	   712.8	    18034.0
  246.53	  847.49	    1.90	    4.46	   716.7	    17979.5
  276.68	  734.46	    1.67	    3.92	   716.3	    17968.2
  810.10	  632.07	     n/a	     n/a	   717.8	    17967.7
  837.82	  847.28	    1.56	    3.67	   707.7	    17821.1
  165.59	  837.30	    1.89	    4.45	   702.1	    17533.2
  606.07	  468.01	    1.29	    3.02	   737.8	    17477.7
  239.49	  785.47	    1.82	    4.28	   715.9	    17326.7
  989.95	  296.07	    1.22	    2.87	   699.7	    17140.5
  429.22	  544.84	    1.51	    3.54	   741.4	    16946.7
  388.21	  935.22	    1.87	    4.39	   714.0	    16889.4
  481.02	  712.64	    1.55	    3.64	   721.2	    16827.9
  306.33	  735.59	    1.57	    3.68	   739.8	    16711.2
  363.94	  185.18	    1.99	    4.67	   719.5	    16611.0
  761.97	  724.98	    1.40	    3.30	   714.5	    16527.3
  306.72	  735.79	    1.82	    4.28	   740.3	    16524.4
   70.17	  480.44	    1.98	    4.66	   714.8	    16503.4
  334.74	  940.86	    1.85	    4.35	   705.1	    16479.5
  431.04	  132.15	     n/a	     n/a	   717.7	    16451.7
  334.75	  940.80	    1.86	    4.36	   705.3	    16413.5
  347.42	   34.01	    1.76	    4.13	   713.5	    16286.0
  994.77	   15.61	     n/a	     n/a	   688.4	    16174.4
  431.89	  133.42	    1.66	    3.91	   719.5	    16083.7
  316.13	  742.67	    1.74	    4.09	   728.8	    15961.3
   22.02	  177.65	    2.21	    5.20	   706.8	    15887.5
  994.89	   16.04	     n/a	     n/a	   688.1	    15662.9
  113.33	  812.92	     n/a	     n/a	   712.5	    15607.1
  438.54	  545.53	    1.58	    3.71	   742.8	    15484.2
  399.03	  186.95	    1.09	    2.57	   724.0	    15484.0
  203.93	  408.89	    1.87	    4.40	   734.9	    15406.1
   32.76	  396.05	     n/a	     n/a	   720.3	    15369.1
  885.53	  645.09	    1.35	    3.17	   705.3	    15288.5
  112.49	  812.48	    1.91	    4.48	   713.2	    15285.8
   33.69	  396.82	     n/a	     n/a	   719.9	    15138.1
  244.80	  626.22	     n/a	     n/a	   724.2	    14962.4
  942.94	  343.50	    1.24	    2.91	   707.4	    14852.8
  685.09	  468.72	    1.63	    3.84	   746.7	    14700.7
  895.96	  850.93	    1.49	    3.49	   712.9	    14621.4
  911.10	  154.25	    1.33	    3.13	   697.7	    14578.2
   17.21	  481.35	     n/a	     n/a	   711.4	    14567.4
  621.50	  138.38	    1.57	    3.70	   712.6	    14513.4
  994.89	   17.02	     n/a	     n/a	   688.3	    14499.6
   31.76	  395.57	     n/a	     n/a	   721.2	    14337.3
   34.15	  397.15	     n/a	     n/a	   720.5	    14307.5
  572.04	   94.08	    1.40	    3.28	   722.1	    14281.1
   34.29	  397.02	     n/a	     n/a	   720.6	    14261.0
  224.06	  598.51	    1.73	    4.07	   733.2	    14180.3
  860.28	  827.13	    1.47	    3.44	   701.1	    14130.4
  750.17	  322.79	     n/a	     n/a	   720.2	    14120.0
  530.23	  719.84	    1.56	    3.66	   723.2	    14080.6
  995.04	   17.77	    2.49	    5.85	   688.6	    13990.0
  297.06	  393.03	    1.76	    4.14	   746.1	    13989.4
   18.18	  480.73	    1.98	    4.66	   712.0	    13988.7
  170.78	  222.29	    1.69	    3.96	   737.1	    13870.2
  855.62	  564.46	    1.40	    3.30	   714.4	    13827.9
  533.92	  539.44	    1.46	    3.43	   739.8	    13808.1
  594.28	  441.28	     n/a	     n/a	   738.8	    13743.8
  245.69	  626.28	     n/a	     n/a	   725.8	    13684.4
  399.03	  187.45	    1.99	    4.67	   724.4	    13611.4
  413.43	  663.28	     n/a	     n/a	   726.3	    13549.0
  806.96	  648.99	    1.29	    3.03	   713.6	    13515.6
  606.31	  320.99	     n/a	     n/a	   731.1	    13439.0
  414.48	  663.35	    1.60	    3.76	   726.9	    13380.6
  205.91	  406.88	     n/a	     n/a	   735.5	    13359.8
   34.84	  397.54	    2.36	    5.55	   720.2	    13205.8
  994.62	   13.82	     n/a	     n/a	   690.3	    13138.1
  814.47	  989.51	     n/a	     n/a	   697.4	    13125.0
  471.92	  677.61	    1.58	    3.70	   727.2	    13085.3
  595.27	  441.00	    1.60	    3.76	   738.4	    13084.8
  929.73	  793.54	     n/a	     n/a	   710.1	    13032.3
  813.57	  988.34	    1.58	    3.71	   698.6	    13005.3
  116.54	  814.08	     n/a	     n/a	   714.0	    12861.2
  994.57	   13.57	     n/a	     n/a	   690.1	    12843.6
  531.06	  320.68	    1.33	    3.11	   725.4	    12792.7
  392.95	  736.79	    1.63	    3.84	   718.4	    12676.5
  929.60	  794.21	     n/a	     n/a	   710.5	    12587.5
  700.58	  620.49	    1.45	    3.41	   722.8	    12530.5
  887.28	   40.04	    1.66	    3.91	   697.7	    12435.4
  208.59	  938.86	    2.05	    4.83	   704.6	    12311.9
  246.37	  626.44	    1.98	    4.64	   728.0	    12173.9
  946.58	  816.59	    1.71	    4.02	   699.2	    12172.3
  915.00	  189.68	    1.26	    2.97	   699.3	    12151.0
   35.30	  397.80	    2.85	    6.70	   720.6	    12140.6
  870.97	  127.64	    1.28	    3.01	   708.2	    12063.4
  570.06	  212.57	    1.53	    3.60	   713.8	    12053.9
  761.98	  672.97	    1.62	    3.80	   724.2	    11910.9
  748.59	  239.64	    1.38	    3.25	   711.9	    11790.5
  277.81	  843.95	    1.87	    4.40	   708.3	    11787.6
   39.84	  485.25	     n/a	     n/a	   717.3	    11786.6
  742.33	  762.98	    1.47	    3.46	   711.1	    11720.0
  303.24	  864.23	    1.88	    4.42	   711.7	    11692.0
  535.08	  848.27	     n/a	     n/a	   717.3	    11646.0
  534.75	  848.95	    1.63	    3.83	   717.0	    11640.2
  747.61	  239.03	     n/a	     n/a	   712.8	    11627.1
  248.04	  487.95	    1.66	    3.89	   738.9	    11617.4
  939.98	  711.01	    1.38	    3.25	   703.8	    11610.1
  340.23	  229.80	    1.78	    4.19	   723.1	    11609.1
   17.74	  176.79	     n/a	     n/a	   707.4	    11601.2
  778.98	  356.31	    1.84	    4.32	   718.1	    11600.1
  205.36	  846.85	    2.21	    5.20	   713.3	    11597.6
  680.10	  376.98	     n/a	     n/a	   726.6	    11594.7
   15.51	  202.43	    1.84	    4.33	   707.8	    11579.6
  844.99	  521.37	    1.14	    2.67	   714.1	    11559.9
  422.24	  709.14	    1.57	    3.68	   747.3	    11397.9
  606.96	  322.50	     n/a	     n/a	   731.6	    11397.8
  881.96	  291.66	    1.24	    2.91	   705.9	    11268.6
   41.55	  488.43	     n/a	     n/a	   721.7	    11207.2
  399.27	  253.92	    1.71	    4.02	   721.3	    11096.6
   13.92	  200.83	     n/a	     n/a	   707.9	    11095.1
  650.01	  384.35	    1.49	    3.51	   727.1	    11063.7
  478.96	  730.63	     n/a	     n/a	   727.6	    10988.3
  930.96	  127.35	    1.46	    3.43	   697.8	    10923.7
  621.06	  697.25	     n/a	     n/a	   733.3	    10903.0
   60.08	  540.49	    1.90	    4.46	   705.1	    10843.6
  772.03	   40.37	    1.53	    3.59	   699.5	    10796.6
   41.91	  488.77	    1.98	    4.66	   721.4	    10723.7
  661.17	  149.19	    1.55	    3.65	   712.5	    10716.4
  158.35	  244.11	    1.82	    4.29	   728.1	    10676.2
  900.74	  138.98	     n/a	     n/a	   701.0	    10661.4
   88.20	  576.42	    2.01	    4.73	   705.8	    10643.1
   42.11	  488.75	    2.05	    4.81	   721.0	    10636.7
  900.23	  139.14	    1.27	    2.98	   701.4	    10570.8
   42.17	  488.76	    2.07	    4.87	   721.1	    10523.7
  244.54	  748.34	    1.72	    4.05	   713.9	    10507.6
  931.57	  253.19	    1.50	    3.52	   701.9	    10503.0
  927.00	  959.92	    1.48	    3.47	   687.1	    10467.2
   39.55	  485.01	     n/a	     n/a	   717.1	    10446.1
  415.77	  542.05	    1.61	    3.79	   738.1	    10401.3
  367.33	  704.96	    1.60	    3.77	   724.3	    10394.1
  665.07	  626.05	    1.25	    2.95	   725.0	    10388.5
  678.62	  378.49	     n/a	     n/a	   727.5	    10386.9
  900.10	  139.24	    1.34	    3.15	   701.4	    10361.8
  331.48	  301.62	    1.62	    3.80	   735.9	    10329.0
  587.97	  315.55	    1.30	    3.06	   727.5	    10242.7
  394.56	  612.51	    1.62	    3.81	   726.9	    10237.0
   42.09	  488.96	    1.95	    4.57	   721.3	    10234.3
  585.60	  829.60	    1.59	    3.74	   719.5	    10149.0
  570.57	  922.64	     n/a	     n/a	   703.3	    10119.1
  929.89	  791.61	     n/a	     n/a	   710.2	    10054.1
  643.23	  566.12	    1.63	    3.84	   731.1	    10052.5
  621.50	  695.94	    1.53	    3.60	   735.5	    10047.0
  246.63	  885.92	    1.83	    4.31	   708.4	    10045.1
  878.81	  829.13	    1.43	    3.36	   704.6	     9995.7
  133.87	  389.29	     n/a	     n/a	   723.7	     9958.4
  214.97	  135.72	    1.81	    4.25	   720.4	     9937.7
  961.48	  901.87	    1.70	    3.99	   694.8	     9849.5
  212.32	  894.47	     n/a	     n/a	   705.9	     9829.9
  350.48	  794.53	    1.89	    4.45	   708.6	     9816.3
  155.61	  254.60	    1.75	    4.10	   727.0	     9794.9
  133.35	  388.98	    1.82	    4.27	   723.9	     9791.0
  315.74	  379.57	    1.54	    3.62	   741.9	     9766.0
  696.59	  335.67	    1.54	    3.63	   722.5	     9700.8
  642.82	  944.80	    1.69	    3.98	   703.1	     9661.1
  354.55	  329.64	     n/a	     n/a	   735.0	     9660.6
  354.76	  330.25	     n/a	     n/a	   735.5	     9647.2
  616.53	  857.43	    1.73	    4.07	   713.4	     9624.8
  607.44	  323.10	    2.12	    4.99	   731.0	     9618.3
  593.96	   66.67	    1.56	    3.67	   709.6	     9591.8
  213.46	  893.87	    2.02	    4.74	   704.4	     9575.6
  273.33	  777.91	    1.80	    4.23	   716.5	     9517.9
  924.39	  300.86	    1.31	    3.07	   709.0	     9497.9
  966.36	  521.15	    1.34	    3.14	   701.7	     9391.9
  377.05	  598.97	    1.45	    3.41	   732.4	     9368.9
  568.51	  924.08	    1.75	    4.11	   705.7	     9361.7
  156.24	  867.28	    2.14	    5.02	   704.3	     9295.0
  874.17	  147.22	    1.47	    3.47	   702.6	     9294.8
  365.74	  453.02	    1.46	    3.42	   754.4	     9277.5
  328.14	  302.37	     n/a	     n/a	   739.6	     9273.3
  568.38	  924.04	    1.76	    4.13	   705.8	     9215.8
   33.18	  526.13	    2.01	    4.73	   705.9	     9204.6
  312.17	  936.18	     n/a	     n/a	   703.6	     9173.9
   93.39	   78.24	     n/a	     n/a	   711.1	     9157.9
  740.55	  911.25	    1.58	    3.71	   701.2	     9137.8
  769.47	  562.82	    1.34	    3.14	   718.7	     9099.5
  328.60	  519.94	    1.63	    3.83	   742.1	     9071.0
  593.03	  472.03	    1.31	    3.07	   739.7	     9005.3
  873.35	  260.23	    1.53	    3.59	   705.2	     8969.4
  356.04	  332.35	    1.62	    3.80	   738.7	     8951.9
  929.61	  796.04	    1.87	    4.40	   711.2	     8923.1
   93.33	   79.70	    1.71	    4.03	   712.6	     8878.6
  739.53	  412.88	    1.28	    3.01	   721.1	     8875.5
  312.83	  937.04	    2.04	    4.79	   704.6	     8862.6
  385.94	  649.65	    1.77	    4.16	   734.8	     8818.4
  316.05	  328.07	    1.45	    3.41	   738.5	     8807.4
  929.59	  796.52	    1.91	    4.49	   711.3	     8806.9
  789.10	  299.69	    1.27	    2.98	   714.9	     8792.8
  677.53	  379.18	    1.75	    4.11	   729.2	     8771.8
  455.88	  104.18	    1.64	    3.86	   711.4	     8653.5
  335.65	  521.52	    1.57	    3.70	   739.6	     8632.9
  794.09	  600.33	    1.38	    3.25	   727.6	     8623.4
  227.75	  377.58	    1.59	    3.73	   735.5	     8593.9
  957.29	  133.05	    1.44	    3.39	   705.2	     8542.1
  473.09	  832.43	    1.73	    4.07	   716.6	     8507.7
  301.53	  336.47	    1.76	    4.13	   736.0	     8506.5
  313.43	  937.38	    2.16	    5.07	   705.2	     8504.0
   38.07	  559.52	    1.97	    4.64	   706.5	     8498.6
  313.47	  937.49	    2.17	    5.10	   705.6	     8486.9
  482.61	  693.62	    1.61	    3.78	   724.4	     8424.0
  877.40	   73.55	    1.45	    3.41	   699.1	     8419.2
  666.28	  518.88	    1.33	    3.13	   726.8	     8407.9
  105.55	  732.96	    2.06	    4.84	   716.7	     8405.1
  677.54	  379.40	    1.83	    4.30	   729.5	     8401.2
  105.34	  733.24	    1.99	    4.67	   717.2	     8395.3
  797.50	   90.61	    1.52	    3.57	   704.4	     8375.8
  697.05	  219.73	    1.47	    3.46	   716.9	     8364.5
   93.96	   79.64	    1.83	    4.30	   713.6	     8339.1
  228.62	  376.98	     n/a	     n/a	   735.7	     8290.6
  207.95	  858.33	    1.78	    4.18	   715.6	     8259.9
  477.04	  730.68	     n/a	     n/a	   728.4	     8198.7
  839.07	  103.62	    1.33	    3.12	   703.3	     8176.6
   53.41	   14.48	     n/a	     n/a	   698.8	     8173.3
  819.18	  939.56	    1.64	    3.85	   699.7	     8093.5
  321.22	  453.56	     n/a	     n/a	   755.7	     8061.3
   47.19	   36.48	    1.84	    4.32	   699.1	     8029.0
  476.91	  731.00	     n/a	     n/a	   727.7	     8015.1
  477.05	  730.27	    2.85	    6.69	   728.4	     7998.3
  459.96	  170.57	    1.52	    3.57	   716.2	     7992.3
  819.41	  939.46	    1.62	    3.81	   699.8	     7979.0
  198.12	  521.68	    2.08	    4.89	   718.9	     7966.4
  321.36	  453.89	     n/a	     n/a	   756.2	     7950.9
  690.19	   56.92	    1.41	    3.32	   710.9	     7932.9
  929.97	  790.47	    2.43	    5.70	   710.4	     7906.5
   55.25	   15.46	    1.81	    4.26	   698.0	     7903.8
  929.97	  790.48	    2.43	    5.70	   710.4	     7901.4
  833.37	  799.82	    1.66	    3.89	   702.7	     7888.5
   85.49	  201.89	    2.51	    5.90	   715.9	     7854.6
  573.94	  189.55	    1.41	    3.32	   713.6	     7846.9
   39.21	  483.83	     n/a	     n/a	   716.5	     7826.3
  477.05	  730.10	     n/a	     n/a	   728.6	     7821.1
   47.59	   36.52	    1.94	    4.55	   699.3	     7806.4
  120.69	  696.59	     n/a	     n/a	   709.0	     7791.2
  477.04	  730.09	    2.58	    6.06	   728.6	     7786.6
  547.73	   23.06	    1.57	    3.68	   707.6	     7771.1
  476.97	  730.38	    2.82	    6.64	   728.0	     7769.6
   85.41	  201.87	     n/a	     n/a	   715.9	     7754.7
   55.55	   15.61	    1.89	    4.43	   697.9	     7746.7
   85.24	  201.86	     n/a	     n/a	   715.9	     7733.1
  439.31	  224.01	     n/a	     n/a	   721.4	     7729.5
  855.97	  276.65	    1.12	    2.63	   707.9	     7719.1
  715.14	   66.48	     n/a	     n/a	   706.4	     7716.3
  571.98	  897.49	    1.67	    3.92	   709.4	     7697.7
  494.56	  718.47	    1.66	    3.90	   720.4	     7659.3
  831.99	  182.93	    1.37	    3.21	   704.4	     7644.9
  120.89	  696.78	     n/a	     n/a	   709.1	     7615.7
  754.36	  378.91	    1.32	    3.10	   729.4	     7603.0
  621.21	  950.14	    1.89	    4.44	   701.8	     7572.8
  362.95	  562.06	    2.40	    5.65	   735.0	     7568.5
  605.00	  737.63	    1.53	    3.58	   730.4	     7554.2
  755.03	  122.06	    1.42	    3.34	   711.7	     7552.0
  763.42	  370.43	     n/a	     n/a	   720.8	     7544.8
  363.06	  561.95	    2.59	    6.08	   735.0	     7502.2
  694.56	  961.30	    1.61	    3.79	   706.0	     7502.0
  715.38	   67.55	    1.63	    3.82	   707.1	     7494.8
  365.58	   43.67	    1.74	    4.10	   724.3	     7450.9
  232.63	  722.40	    1.78	    4.18	   716.7	     7438.3
  476.89	  430.32	    1.46	    3.44	   743.8	     7437.8
  887.60	  235.55	    1.52	    3.58	   702.2	     7427.1
  951.12	  231.26	    1.43	    3.36	   699.8	     7426.0
  392.56	  629.44	    1.72	    4.04	   732.0	     7415.9
  328.08	  599.65	    1.90	    4.46	   729.9	     7388.6
  310.78	  309.23	    1.61	    3.78	   740.8	     7358.5
  349.43	  922.60	    1.85	    4.34	   710.8	     7345.0
  498.23	  872.91	    1.66	    3.91	   717.1	     7333.0
  302.94	  470.52	     n/a	     n/a	   752.8	     7331.5
   64.55	  151.11	    1.75	    4.11	   706.2	     7318.0
  303.08	  470.75	     n/a	     n/a	   752.8	     7303.7
  362.82	  561.92	    2.44	    5.74	   734.9	     7301.5
  966.53	  854.38	     n/a	     n/a	   700.7	     7264.6
  314.97	  938.87	     n/a	     n/a	   706.8	     7262.3
  498.71	  872.87	    1.82	    4.28	   716.9	     7248.1
  815.01	  940.74	     n/a	     n/a	   701.0	     7245.3
  757.07	  491.10	    1.19	    2.80	   722.4	     7235.5
  847.99	  252.63	    1.25	    2.94	   708.7	     7227.9
  304.16	  472.87	     n/a	     n/a	   752.9	     7221.7
  936.11	  199.26	    1.33	    3.14	   698.0	     7200.1
  926.12	  899.77	    1.71	    4.03	   693.5	     7180.8
  792.03	  267.37	    1.49	    3.51	   712.2	     7166.6
  725.00	  491.68	    1.91	    4.48	   731.2	     7148.9
  478.09	  538.31	    1.47	    3.45	   745.6	     7143.3
  171.32	  702.96	    1.90	    4.47	   710.1	     7131.0
  121.04	  697.00	     n/a	     n/a	   709.5	     7114.0
  205.37	  981.96	    2.01	    4.71	   700.2	     7102.9
  791.33	  746.98	    1.53	    3.60	   709.2	     7100.9
  967.02	  854.21	    1.59	    3.73	   701.2	     7096.5
  372.32	  201.06	    1.63	    3.82	   720.1	     7093.1
   42.64	  458.02	    1.76	    4.14	   713.4	     7091.1
  241.49	  345.60	    1.73	    4.06	   738.2	     7048.3
  930.43	  349.01	     n/a	     n/a	   709.1	     7039.9
  645.01	  927.67	    1.65	    3.87	   708.8	     7032.3
  417.29	  555.77	     n/a	     n/a	   732.3	     7012.8
  847.99	  253.06	    1.28	    3.02	   709.0	     6998.0
  187.42	  670.51	    1.80	    4.23	   717.9	     6982.2
  564.32	  554.89	    1.42	    3.35	   739.2	     6971.2
  417.09	  555.54	    1.59	    3.75	   732.8	     6959.0
  347.55	  547.13	     n/a	     n/a	   734.0	     6954.9
  205.22	  466.64	     n/a	     n/a	   733.2	     6951.4
  910.11	  686.76	    1.42	    3.33	   702.8	     6925.4
  547.04	  619.99	    1.55	    3.65	   733.5	     6923.3
  365.84	  565.39	     n/a	     n/a	   737.0	     6898.6
  583.72	  886.95	    1.56	    3.66	   706.4	     6883.1
  551.25	   61.89	    1.57	    3.68	   707.3	     6874.5
  806.48	  910.92	    1.65	    3.88	   701.9	     6869.0
  645.95	  225.33	    1.39	    3.27	   719.4	     6867.2
  175.81	  843.96	    1.81	    4.26	   703.3	     6866.8
  111.27	  924.85	    2.26	    5.30	   703.8	     6853.3
  347.85	  546.90	     n/a	     n/a	   734.3	     6849.8
  735.37	  544.24	     n/a	     n/a	   722.6	     6841.3
  545.86	  788.77	     n/a	     n/a	   716.2	     6819.1
  106.15	  130.93	    2.07	    4.86	   716.1	     6815.2
  430.48	  674.95	    1.57	    3.70	   724.6	     6814.3
  835.57	  170.46	    1.51	    3.55	   704.8	     6801.8
  519.82	  394.13	     n/a	     n/a	   737.6	     6796.2
  687.00	  393.93	    1.32	    3.10	   726.6	     6789.2
  358.08	   40.08	    1.60	    3.76	   738.3	     6782.2
  417.09	  555.27	    1.51	    3.56	   733.2	     6768.7
  111.53	  924.93	    2.33	    5.47	   704.7	     6763.5
  205.29	  466.41	     n/a	     n/a	   733.4	     6749.2
  708.70	  437.10	    1.30	    3.05	   733.8	     6739.2
  871.00	  181.05	    1.33	    3.13	   708.3	     6738.9
  273.03	  811.94	    1.97	    4.64	   714.2	     6726.1
 1010.13	  639.78	     n/a	     n/a	   694.3	     6718.6
  682.17	  375.28	    2.55	    5.99	   728.2	     6716.9
  275.12	  933.18	    1.92	    4.51	   702.1	     6675.9
  505.55	  333.12	    1.42	    3.35	   726.5	     6664.3
  694.76	  726.96	    1.50	    3.52	   720.5	     6661.1
 1010.35	  640.96	    1.51	    3.55	   694.1	     6633.6
  869.51	  700.69	    2.08	    4.88	   708.1	     6631.9
  734.51	  545.08	     n/a	     n/a	   722.0	     6623.0
  261.13	  277.50	    1.54	    3.62	   737.8	     6615.1
  719.20	  183.26	    1.37	    3.21	   712.2	     6612.0
  417.08	  555.07	    1.46	    3.44	   733.9	     6581.4
  367.07	  969.16	    1.94	    4.55	   705.5	     6577.7
  597.99	  901.48	    1.62	    3.81	   706.7	     6548.8
  761.69	  368.65	    1.89	    4.43	   719.5	     6519.3
  222.09	  221.40	    2.09	    4.90	   724.6	     6515.7
  816.89	  604.47	    1.34	    3.16	   717.7	     6512.3
  414.56	  183.63	    1.74	    4.10	   721.4	     6504.4
  366.97	  969.07	    1.97	    4.62	   705.8	     6495.3
  545.93	  789.69	    1.63	    3.84	   716.7	     6483.7
  301.44	   40.13	    1.83	    4.30	   713.1	     6483.6
  367.03	  968.95	    2.01	    4.72	   705.8	     6481.8
  719.95	  600.45	    1.60	    3.76	   718.2	     6477.9
  545.86	  789.81	    1.59	    3.75	   717.0	     6448.3
  433.28	  514.03	    1.54	    3.62	   742.8	     6447.8
  440.04	  221.02	    1.42	    3.34	   723.0	     6444.7
  814.52	  940.78	     n/a	     n/a	   701.9	     6416.8
  667.31	   43.05	    1.45	    3.40	   703.9	     6415.5
  760.74	  525.93	    1.45	    3.40	   719.8	     6392.7
  981.54	  843.64	    1.70	    4.00	   698.1	     6387.3
  649.90	  750.19	    1.65	    3.87	   719.8	     6380.6
  302.56	  470.01	     n/a	     n/a	   753.1	     6370.5
  965.95	  131.02	    1.33	    3.13	   699.8	     6364.7
  145.56	  165.10	    1.81	    4.24	   724.5	     6362.8
  205.72	  465.93	     n/a	     n/a	   734.2	     6357.7
  203.55	  468.28	     n/a	     n/a	   733.9	     6351.0
  481.32	  821.92	    1.86	    4.38	   716.7	     6334.0
  370.01	  281.30	    1.48	    3.47	   724.8	     6332.9
  898.30	  586.07	    1.30	    3.05	   709.5	     6325.2
  265.37	   70.06	    1.85	    4.36	   709.9	     6305.3
  649.71	  749.98	    1.61	    3.79	   719.9	     6292.8
  591.43	  598.98	    1.64	    3.86	   726.2	     6288.0
  236.59	  286.64	    1.85	    4.35	   725.2	     6286.0
  904.35	  135.73	     n/a	     n/a	   700.9	     6274.1
  649.59	  749.98	    1.60	    3.75	   720.1	     6273.2
  565.87	  105.51	    1.54	    3.61	   721.7	     6271.3
  935.96	   43.08	    1.45	    3.40	   694.7	     6265.7
  590.56	  981.35	    1.67	    3.93	   704.0	     6252.5
  118.37	  814.83	    1.73	    4.05	   716.3	     6237.0
  199.61	  163.60	    2.36	    5.54	   726.8	     6236.4
  233.06	  476.94	    1.79	    4.20	   734.5	     6214.1
  521.99	  394.05	    1.34	    3.15	   739.8	     6206.3
  921.98	  133.97	    1.35	    3.18	   697.4	     6191.5
  203.40	  468.26	     n/a	     n/a	   734.0	     6186.0
  270.11	  767.64	    2.02	    4.76	   713.4	     6178.2
  706.53	   93.59	    1.61	    3.79	   706.3	     6154.4
  622.54	  847.47	    1.67	    3.92	   715.9	     6154.2
  199.30	  163.82	    2.34	    5.49	   727.0	     6146.0
  450.08	  420.01	    1.42	    3.34	   749.7	     6140.7
  818.27	  739.05	    1.42	    3.34	   707.9	     6105.7
  481.29	  822.14	    1.78	    4.18	   716.7	     6092.5
  302.47	  469.59	    2.24	    5.27	   752.8	     6091.0
  481.12	  822.27	    1.73	    4.08	   716.9	     6087.2
  616.43	  933.09	    2.27	    5.33	   704.7	     6085.8
   59.01	  264.53	    1.99	    4.67	   714.9	     6078.8
  481.10	  822.40	    1.70	    3.99	   717.0	     6076.2
  297.54	  319.58	    1.69	    3.97	   737.4	     6069.3
  761.44	  368.44	    1.35	    3.18	   719.7	     6062.6
  964.72	  913.84	    1.87	    4.38	   691.4	     6034.5
  507.59	  426.15	    1.35	    3.17	   741.6	     6033.1
  341.08	  291.04	    1.55	    3.63	   727.1	     6030.2
  316.35	  841.05	     n/a	     n/a	   711.6	     5984.3
  302.44	  469.48	    2.28	    5.35	   752.7	     5973.5
  285.71	   12.63	    1.76	    4.14	   705.0	     5972.7
  947.11	  935.50	     n/a	     n/a	   692.2	     5972.2
  885.96	  740.90	    1.37	    3.22	   704.0	     5970.4
  189.47	  698.96	    2.00	    4.70	   711.0	     5961.6
   52.09	  797.17	    2.03	    4.77	   696.0	     5947.2
  613.72	  688.01	    1.33	    3.13	   727.4	     5944.8
   52.09	  797.17	    2.03	    4.78	   696.1	     5943.7
  733.96	  546.49	    1.46	    3.42	   722.8	     5920.6
  947.60	  935.89	     n/a	     n/a	   692.4	     5910.8
  990.94	   98.13	    1.52	    3.57	   689.7	     5894.0
  683.23	  375.25	     n/a	     n/a	   727.1	     5885.7
  669.20	  653.24	    1.44	    3.39	   721.6	     5880.5
  345.25	  546.83	     n/a	     n/a	   730.6	     5848.9
  227.05	  455.03	    1.86	    4.38	   733.7	     5823.1
  399.10	  984.39	    1.86	    4.38	   708.1	     5821.7
  349.35	  546.92	     n/a	     n/a	   736.5	     5814.4
  733.90	  546.57	    1.44	    3.39	   722.9	     5797.8
  759.54	  333.43	    1.39	    3.27	   724.8	     5774.1
  776.68	  695.00	    1.38	    3.24	   716.5	     5769.4
  656.31	  462.00	    1.38	    3.23	   731.4	     5738.3
  203.42	  468.58	     n/a	     n/a	   733.8	     5735.4
  506.57	  824.31	    2.43	    5.72	   718.2	     5712.3
  226.74	  455.04	    1.78	    4.19	   733.3	     5692.4
  304.81	  474.54	    2.70	    6.35	   751.7	     5690.9
  188.71	  539.55	    1.71	    4.01	   713.6	     5674.5
  424.56	  574.48	    1.62	    3.82	   730.3	     5674.5
  848.74	  416.14	    1.19	    2.79	   714.6	     5672.3
  690.96	  280.10	    1.27	    2.99	   717.1	     5669.2
  783.06	  597.05	    1.28	    3.01	   725.7	     5655.4
  219.09	  517.44	    1.80	    4.22	   728.8	     5654.3
  198.28	  715.14	    1.87	    4.40	   719.3	     5653.6
  452.73	  550.20	     n/a	     n/a	   737.8	     5650.5
  702.44	  348.46	    2.26	    5.32	   722.4	     5649.0
  506.67	  824.08	    2.45	    5.76	   718.0	     5648.3
   40.19	  612.42	    1.97	    4.62	   703.1	     5636.5
  303.63	  476.33	     n/a	     n/a	   750.1	     5631.2
  236.37	  656.98	     n/a	     n/a	   725.1	     5612.2
   91.27	  763.28	    1.91	    4.49	   709.6	     5583.6
  507.76	  765.82	     n/a	     n/a	   718.9	     5570.8
  319.73	  957.93	    1.86	    4.37	   704.5	     5562.4
  304.03	  475.24	     n/a	     n/a	   750.9	     5550.9
  559.98	   99.06	    1.62	    3.80	   718.8	     5548.6
  237.64	  658.01	    1.84	    4.31	   728.2	     5532.8
  260.47	  219.95	    1.64	    3.86	   731.7	     5525.1
  292.67	  529.60	     n/a	     n/a	   727.9	     5496.2
  273.89	 1009.99	    2.13	    5.01	   700.0	     5493.0
  971.66	  731.98	    1.49	    3.50	   707.6	     5481.9
  508.05	  764.65	    1.56	    3.67	   720.1	     5481.0
  909.50	  797.33	    1.67	    3.92	   706.3	     5461.8
  934.89	  915.41	     n/a	     n/a	   695.2	     5446.1
  641.66	  215.07	    1.58	    3.71	   719.3	     5441.1
  112.68	  584.59	     n/a	     n/a	   717.7	     5435.7
  471.82	  616.69	    1.57	    3.68	   732.3	     5429.7
  502.65	  828.60	     n/a	     n/a	   721.1	     5428.5
  220.72	  587.95	    1.90	    4.46	   725.8	     5424.2
  102.20	  402.96	     n/a	     n/a	   732.6	     5416.6
  960.61	  316.52	    1.39	    3.27	   700.8	     5413.5
  158.36	  782.87	    2.05	    4.83	   709.1	     5389.8
  111.79	  584.93	    1.75	    4.11	   717.4	     5386.9
  750.26	  542.05	    1.30	    3.05	   722.3	     5371.5
  304.94	  474.79	    3.14	    7.38	   751.6	     5364.1
   67.02	  813.20	     n/a	     n/a	   702.4	     5354.4
  589.55	  399.56	    1.55	    3.65	   733.1	     5341.4
  948.31	  935.98	    3.06	    7.19	   692.6	     5340.3
  609.07	  135.61	    1.52	    3.57	   712.6	     5336.7
  682.90	  241.94	    1.28	    3.00	   716.3	     5334.0
  183.98	  663.88	     n/a	     n/a	   715.8	     5321.7
  921.90	   20.49	    1.59	    3.75	   695.6	     5318.1
  137.50	  420.13	    1.70	    3.99	   728.1	     5304.2
 1010.00	  637.00	     n/a	     n/a	   692.9	     5303.3
  185.12	  764.53	    1.99	    4.68	   705.9	     5299.2
   48.56	  521.09	    1.94	    4.57	   705.7	     5239.2
  372.92	   69.46	    1.67	    3.91	   710.9	     5237.0
  350.29	  546.81	    1.92	    4.51	   737.6	     5232.1
  463.66	  778.99	    1.92	    4.51	   718.5	     5211.8
  233.87	  969.27	    2.37	    5.58	   709.9	     5211.0
  516.70	   57.11	    1.89	    4.44	   705.0	     5207.9
  695.99	  557.08	    1.30	    3.05	   726.7	     5199.3
  568.00	  230.34	    1.40	    3.30	   712.5	     5197.8
  572.54	  329.06	    1.51	    3.56	   726.4	     5196.5
  233.92	  969.22	    2.40	    5.64	   710.2	     5190.4
  350.22	  546.63	    1.88	    4.42	   737.9	     5189.8
  230.28	  391.96	    1.73	    4.07	   740.6	     5168.0
  350.68	  546.60	    1.90	    4.46	   738.0	     5152.7
  214.57	  790.44	    2.07	    4.87	   708.7	     5146.9
  713.27	  531.72	    1.34	    3.14	   723.7	     5145.7
  613.96	  222.66	     n/a	     n/a	   725.5	     5086.2
  704.80	  883.26	    0.76	    1.78	   712.4	     5070.5
   15.80	  702.90	     n/a	     n/a	   702.9	     5048.1
  488.92	  661.40	    1.50	    3.52	   733.2	     5042.6
  342.49	  864.00	    1.93	    4.53	   713.7	     5039.9
  704.70	  883.26	    0.75	    1.76	   712.6	     5038.0
  896.60	  109.48	    1.61	    3.79	   697.7	     5034.1
   26.05	  327.76	    1.92	    4.50	   712.7	     5006.7
  206.66	  465.01	    2.17	    5.11	   735.2	     5000.8
  839.46	  558.90	    1.71	    4.01	   712.0	     4998.6
  341.61	  442.47	    1.83	    4.31	   758.8	     4997.0
  158.68	  637.49	    1.95	    4.57	   714.1	     4985.2
  636.06	  294.99	    1.33	    3.12	   720.9	     4968.8
  589.72	  126.94	    1.67	    3.92	   714.7	     4962.0
  593.23	  428.37	     n/a	     n/a	   736.2	     4937.2
  317.39	  843.21	    2.22	    5.23	   713.6	     4935.6
  315.13	  838.44	     n/a	     n/a	   710.5	     4932.2
  770.66	  286.90	    1.24	    2.92	   723.6	     4930.7
  317.41	  843.10	    2.25	    5.28	   713.5	     4926.9
  202.82	  469.18	    2.62	    6.16	   734.7	     4924.3
  932.67	  914.47	    1.67	    3.92	   696.8	     4921.2
  191.79	  357.96	    1.71	    4.01	   723.8	     4918.3
  486.01	  115.76	    1.72	    4.05	   712.6	     4906.9
  731.59	  633.41	     n/a	     n/a	   724.5	     4903.6
  554.47	  130.14	     n/a	     n/a	   713.2	     4899.9
  932.40	  914.47	    1.67	    3.92	   697.0	     4893.0
  747.73	  639.93	    1.44	    3.39	   717.7	     4864.1
  127.15	  602.48	     n/a	     n/a	   716.7	     4835.9
  495.61	  348.46	    1.48	    3.47	   728.7	     4829.2
  113.66	  754.94	    2.07	    4.85	   709.0	     4815.5
  731.78	  633.23	     n/a	     n/a	   724.6	     4796.2
  866.40	  766.15	     n/a	     n/a	   705.9	     4794.9
  134.24	  904.37	    2.37	    5.56	   704.2	     4789.9
  894.95	  869.43	    1.57	    3.70	   702.0	     4778.8
  776.64	  125.03	    1.35	    3.17	   708.4	     4776.1
  804.92	  470.66	    1.46	    3.44	   717.8	     4775.0
   17.05	  701.69	    1.98	    4.64	   704.4	     4756.5
  161.09	  552.40	    1.89	    4.44	   723.5	     4753.9
  739.41	   86.51	     n/a	     n/a	   704.7	     4753.6
  829.55	  489.89	    1.27	    2.99	   713.5	     4753.0
   17.05	  701.69	    1.98	    4.64	   704.4	     4752.2
  178.09	  966.51	    2.14	    5.04	   702.2	     4745.5
  973.00	  884.26	    1.45	    3.41	   697.2	     4738.4
  315.18	  751.35	    2.20	    5.16	   726.6	     4727.2
  741.02	   83.70	    1.41	    3.30	   705.7	     4724.4
  315.10	  751.51	    2.23	    5.25	   726.9	     4715.0
  249.53	  304.56	    2.23	    5.25	   730.3	     4713.0
  786.15	  347.42	    1.27	    2.98	   717.3	     4705.8
  314.93	  751.79	    2.33	    5.48	   726.7	     4686.1
  267.96	  404.67	     n/a	     n/a	   743.2	     4671.8
  294.44	  529.36	     n/a	     n/a	   727.8	     4668.3
  866.67	  766.95	    1.44	    3.39	   705.7	     4660.4
  154.24	  749.36	    2.05	    4.82	   708.4	     4656.7
  866.50	  766.82	    1.43	    3.37	   705.8	     4656.2
  805.08	  392.99	     n/a	     n/a	   720.8	     4655.2
  639.52	  631.51	    1.73	    4.06	   724.7	     4653.6
  470.92	 1008.40	    2.41	    5.66	   703.4	     4652.6
  872.20	  905.13	    2.84	    6.68	   702.6	     4643.0
  139.61	  176.56	    1.90	    4.46	   723.5	     4636.8
   21.12	  497.58	    2.13	    5.00	   710.4	     4634.9
  463.45	  536.40	    1.65	    3.87	   753.5	     4626.9
  292.09	  875.96	    1.71	    4.03	   718.7	     4624.2
  522.99	  361.98	    1.49	    3.49	   725.4	     4604.9
  194.98	  726.75	    1.92	    4.50	   716.1	     4602.2
  872.32	  905.12	    2.85	    6.69	   703.1	     4601.9
  182.61	  141.49	    1.82	    4.28	   721.2	     4592.8
  549.49	  922.38	     n/a	     n/a	   706.8	     4592.4
  433.30	  488.10	    1.48	    3.47	   750.9	     4577.8
  470.84	 1008.18	     n/a	     n/a	   703.6	     4577.7
  553.76	  131.07	    1.45	    3.40	   714.6	     4576.8
  731.80	  632.75	    2.93	    6.88	   725.4	     4570.3
  271.07	  415.96	    1.74	    4.08	   745.4	     4563.7
  756.56	  511.06	    1.55	    3.63	   719.0	     4562.9
  134.06	  797.94	    2.00	    4.71	   704.7	     4560.4
  264.88	  404.38	    1.57	    3.70	   742.7	     4559.2
  134.06	  797.94	    2.00	    4.71	   704.8	     4556.8
  134.15	  903.91	    2.36	    5.54	   704.6	     4551.8
   94.27	  410.63	    1.97	    4.64	   730.7	     4544.4
  829.33	  442.68	    1.53	    3.61	   711.5	     4534.1
  540.95	  755.36	    1.49	    3.50	   717.6	     4516.5
  601.49	  778.95	    1.75	    4.11	   719.6	     4514.1
  539.04	  674.50	    2.01	    4.72	   725.9	     4511.9
   54.42	   74.17	     n/a	     n/a	   699.0	     4507.2
  829.60	  442.44	    1.54	    3.61	   711.4	     4501.3
  501.45	  830.48	    1.92	    4.50	   720.9	     4496.1
  415.55	  133.02	    1.79	    4.21	   713.7	     4493.1
  712.92	  584.23	     n/a	     n/a	   728.8	     4477.8
  876.48	  673.50	    1.47	    3.46	   707.1	     4470.4
  113.73	  848.30	     n/a	     n/a	   703.3	     4455.7
  752.80	  618.05	     n/a	     n/a	   717.9	     4454.6
  175.55	  787.49	    1.86	    4.37	   709.2	     4449.9
  382.27	 1010.02	    2.07	    4.87	   694.0	     4445.6
  383.72	  702.94	    1.72	    4.04	   721.0	     4443.7
  930.23	  839.99	    1.53	    3.59	   703.3	     4442.2
  247.35	  647.84	     n/a	     n/a	   724.8	     4436.1
  379.46	  636.52	    1.84	    4.33	   732.0	     4431.8
   94.67	  410.47	    2.17	    5.09	   731.2	     4421.1
  126.67	  599.73	     n/a	     n/a	   719.8	     4420.0
  732.50	  938.42	    1.69	    3.98	   697.4	     4419.8
  184.07	  821.48	    2.01	    4.73	   702.3	     4417.3
  551.00	  232.09	    1.26	    2.97	   715.7	     4413.8
   14.32	  704.26	     n/a	     n/a	   701.2	     4411.4
  718.40	  508.08	    1.53	    3.58	   727.5	     4403.5
  275.10	  828.50	    1.75	    4.12	   711.8	     4396.5
  728.06	  381.01	    1.26	    2.97	   722.7	     4393.7
  786.17	   25.52	    2.51	    5.89	   700.8	     4380.5
  592.58	  428.66	    1.57	    3.68	   737.7	     4374.7
  714.25	  584.23	     n/a	     n/a	   728.6	     4371.4
  999.95	  922.47	    1.58	    3.70	   685.9	     4367.2
  549.34	  921.81	    1.56	    3.67	   707.3	     4366.1
  993.01	 1001.64	    1.68	    3.94	   680.0	     4359.2
  268.65	  404.90	     n/a	     n/a	   743.9	     4354.3
  592.53	  428.78	    1.53	    3.61	   737.8	     4353.6
  999.11	  898.17	     n/a	     n/a	   691.5	     4349.9
  540.52	  509.95	    1.48	    3.48	   752.9	     4340.0
  879.97	  184.96	    1.44	    3.39	   705.6	     4339.2
  450.75	  549.60	    1.58	    3.70	   742.1	     4337.9
  386.53	  395.12	    1.58	    3.71	   750.3	     4337.1
  229.58	  323.00	    1.62	    3.81	   727.3	     4335.5
  174.71	  166.56	     n/a	     n/a	   722.8	     4328.1
  312.74	  998.90	     n/a	     n/a	   706.5	     4322.1
  295.28	  529.14	    1.86	    4.37	   728.5	     4318.7
  312.74	  998.90	     n/a	     n/a	   706.6	     4317.3
  113.05	  848.36	    2.49	    5.85	   703.4	     4310.7
  185.21	  207.26	    2.03	    4.77	   730.9	     4303.9
  295.27	  529.14	    1.86	    4.38	   728.7	     4302.8
   71.43	   61.00	     n/a	     n/a	   703.9	     4292.2
  474.75	  655.22	     n/a	     n/a	   728.5	     4291.6
  338.46	  757.56	    1.90	    4.46	   718.2	     4287.6
  207.72	  898.71	     n/a	     n/a	   704.8	     4279.5
  627.35	  759.88	    1.75	    4.12	   719.1	     4270.1
  863.97	  511.64	    1.16	    2.72	   709.6	     4261.4
  455.08	  550.83	     n/a	     n/a	   739.0	     4261.3
  174.43	  166.58	     n/a	     n/a	   722.7	     4254.3
  437.24	  475.07	     n/a	     n/a	   753.8	     4241.2
   67.17	  696.23	    1.97	    4.63	   704.6	     4240.3
  474.82	  656.00	     n/a	     n/a	   729.1	     4237.3
  234.96	  967.67	     n/a	     n/a	   709.0	     4230.7
   81.88	   14.02	     n/a	     n/a	   699.6	     4222.4
  592.28	  428.75	    1.44	    3.39	   738.2	     4217.2
 1003.39	  720.45	    1.48	    3.47	   701.5	     4213.4
  796.45	  555.32	    1.48	    3.48	   716.5	     4209.9
  311.75	  753.62	     n/a	     n/a	   723.2	     4207.8
  312.88	  998.91	     n/a	     n/a	   706.9	     4206.9
  233.96	  604.51	    1.97	    4.62	   723.2	     4206.2
  358.33	  847.96	    2.01	    4.72	   712.1	     4191.9
  450.49	  549.50	    1.54	    3.63	   742.7	     4191.2
  787.01	  486.98	    1.47	    3.45	   718.2	     4181.7
  519.00	  404.98	    1.37	    3.23	   738.9	     4176.6
   72.58	   59.06	    1.84	    4.34	   706.7	     4167.5
  282.03	   60.61	    1.79	    4.20	   707.0	     4166.3
  592.16	  428.66	    1.41	    3.32	   738.3	     4160.5
  177.37	  166.27	     n/a	     n/a	   722.4	     4156.9
  429.47	  617.98	    2.09	    4.92	   731.5	     4153.4
  639.59	  391.15	    1.73	    4.07	   730.0	     4149.8
  796.27	  555.09	    1.35	    3.18	   716.7	     4148.5
  596.57	  872.58	    1.79	    4.20	   712.3	     4144.8
  174.27	  166.67	     n/a	     n/a	   722.9	     4140.5
  700.03	   19.02	    1.53	    3.60	   705.2	     4140.0
  740.75	  381.12	    1.32	    3.10	   724.8	     4137.9
  142.45	  781.95	    1.83	    4.31	   709.6	     4133.6
  396.08	  267.07	    1.50	    3.53	   721.6	     4117.3
  258.69	  434.47	    1.73	    4.06	   744.4	     4114.1
  113.00	  848.42	    2.03	    4.77	   703.4	     4113.0
  797.94	  817.23	    1.40	    3.28	   707.4	     4099.3
  596.78	  872.79	    1.89	    4.44	   712.5	     4085.8
  550.81	  897.22	    1.99	    4.67	   713.0	     4085.7
  867.32	  424.06	    1.51	    3.54	   715.8	     4082.1
  977.42	  491.58	     n/a	     n/a	   703.2	     4076.6
  539.05	  842.67	    1.98	    4.64	   718.1	     4075.8
  942.04	   82.37	    1.94	    4.55	   695.8	     4075.4
   24.47	   22.57	    2.03	    4.78	   692.5	     4074.9
  942.04	   82.37	    1.94	    4.55	   695.8	     4074.2
  549.22	  921.02	    1.67	    3.91	   708.3	     4062.3
  142.81	  781.95	    1.93	    4.54	   710.0	     4061.8
  538.97	  842.78	    1.93	    4.53	   718.4	     4059.6
  872.01	  135.97	    1.43	    3.37	   707.2	     4051.3
  587.92	  718.80	    1.66	    3.91	   724.8	     4043.8
  751.30	  620.01	     n/a	     n/a	   718.8	     4040.7
  870.98	  592.04	    1.32	    3.11	   707.0	     4034.3
  550.98	  897.45	    1.97	    4.62	   713.2	     4031.3
  836.63	  875.65	     n/a	     n/a	   702.0	     4028.9
  582.31	  692.00	    1.51	    3.55	   721.1	     4027.0
  924.73	  522.85	    1.24	    2.92	   703.5	     4013.6
  541.07	  528.50	    1.61	    3.79	   748.3	     4007.9
  215.43	  194.87	    2.29	    5.37	   722.2	     4006.8
   79.44	  612.85	    2.08	    4.88	   709.2	     3994.8
  362.34	   20.03	    1.87	    4.39	   703.7	     3994.4
   94.84	  305.23	    1.79	    4.22	   717.4	     3983.5
  897.26	  541.11	    1.23	    2.89	   706.2	     3983.4
  490.99	  612.25	    1.66	    3.91	   730.4	     3981.8
   14.29	  699.53	     n/a	     n/a	   702.9	     3978.5
  573.13	  788.27	    2.74	    6.43	   714.5	     3977.1
  663.60	  612.80	     n/a	     n/a	   725.4	     3977.0
  482.16	  679.72	    1.62	    3.81	   725.2	     3966.7
  617.95	  503.31	     n/a	     n/a	   733.5	     3958.1
  394.16	  787.65	     n/a	     n/a	   718.0	     3953.8
   42.78	  532.59	     n/a	     n/a	   709.4	     3952.6
  199.97	  506.51	    2.16	    5.08	   724.1	     3946.8
  274.51	  119.97	     n/a	     n/a	   711.4	     3945.8
   43.12	  823.23	    2.06	    4.84	   699.1	     3937.9
  202.74	  311.15	     n/a	     n/a	   726.5	     3932.8
  394.18	  788.39	     n/a	     n/a	   717.8	     3930.7
   80.53	   13.14	     n/a	     n/a	   698.4	     3929.0
  663.49	  612.80	     n/a	     n/a	   725.5	     3928.7
  769.02	   14.64	     n/a	     n/a	   700.8	     3923.4
  643.33	  202.87	    1.55	    3.63	   720.0	     3919.3
  183.08	  994.91	    2.06	    4.84	   694.2	     3919.1
  207.22	  899.14	    2.23	    5.25	   705.2	     3915.8
  308.06	  233.36	    1.66	    3.91	   723.4	     3915.2
   16.09	  856.35	    1.91	    4.48	   691.3	     3912.4
  992.09	   76.27	    1.49	    3.49	   691.3	     3908.2
  146.64	   79.10	    1.74	    4.09	   718.9	     3905.7
  217.09	  924.64	    1.96	    4.60	   707.9	     3905.7
  643.09	  202.99	    1.54	    3.61	   720.1	     3903.0
  289.35	  530.24	     n/a	     n/a	   729.0	     3890.3
   99.63	  469.64	    2.20	    5.18	   715.8	     3881.3
  765.65	  372.99	    2.76	    6.49	   721.0	     3877.0
  596.50	  768.35	    1.81	    4.25	   719.8	     3876.0
  202.30	  311.03	     n/a	     n/a	   726.6	     3867.2
  512.45	  700.46	    1.73	    4.07	   722.5	     3867.0
  471.97	  340.56	     n/a	     n/a	   727.7	     3865.6
  760.95	  824.54	    1.54	    3.63	   705.9	     3860.4
  664.81	  613.04	     n/a	     n/a	   723.9	     3860.4
  381.07	  130.36	    1.94	    4.57	   715.0	     3858.2
  664.12	  613.04	     n/a	     n/a	   724.8	     3855.7
  497.01	  854.61	    1.77	    4.16	   709.4	     3844.3
  746.02	  124.73	    1.41	    3.30	   708.7	     3837.4
  248.58	  651.62	     n/a	     n/a	   730.4	     3836.7
  633.86	  971.75	    1.85	    4.34	   704.6	     3832.3
  905.51	  342.21	    1.37	    3.21	   707.9	     3828.8
   83.92	   15.46	     n/a	     n/a	   701.2	     3819.5
   83.67	   13.57	     n/a	     n/a	   701.0	     3819.2
  979.05	  492.20	     n/a	     n/a	   703.1	     3817.7
  349.08	  176.54	    1.61	    3.78	   722.7	     3816.9
  998.01	  898.63	    2.21	    5.19	   693.0	     3816.4
  715.45	  584.13	    2.31	    5.43	   728.6	     3812.9
  345.63	  257.20	    1.92	    4.52	   722.5	     3812.0
  439.50	  692.51	    1.78	    4.19	   725.4	     3807.1
  148.27	  598.01	     n/a	     n/a	   723.9	     3806.3
  682.54	  683.03	    1.37	    3.23	   724.4	     3802.1
  437.27	  475.89	    2.57	    6.04	   754.5	     3800.3
  173.80	  166.70	     n/a	     n/a	   723.1	     3792.0
  158.58	  457.91	    1.89	    4.44	   721.0	     3789.4
  769.64	   15.58	     n/a	     n/a	   702.8	     3787.2
  675.66	  674.52	     n/a	     n/a	   725.3	     3784.0
  458.59	  615.90	    1.74	    4.09	   729.6	     3783.8
  267.39	  572.33	    1.88	    4.42	   733.3	     3779.6
  838.16	  873.41	     n/a	     n/a	   705.2	     3779.5
  179.69	   41.56	    1.85	    4.35	   701.9	     3771.6
  675.83	  674.30	     n/a	     n/a	   725.3	     3763.8
  248.26	  652.04	     n/a	     n/a	   731.7	     3758.6
  369.15	  992.23	    1.60	    3.75	   701.3	     3758.5
  267.25	  572.47	    1.88	    4.41	   733.4	     3756.4
  471.73	  340.31	     n/a	     n/a	   727.6	     3755.8
  804.35	  390.03	    2.70	    6.34	   720.7	     3752.4
  140.59	  502.96	    1.83	    4.30	   718.6	     3746.5
  390.49	   53.69	     n/a	     n/a	   721.4	     3743.1
  313.85	  107.10	     n/a	     n/a	   717.0	     3742.4
  763.47	  310.60	    1.34	    3.14	   717.8	     3737.5
  837.95	  949.36	    1.81	    4.26	   694.1	     3736.0
   63.39	  353.99	    1.94	    4.55	   715.3	     3734.0
  214.97	  694.53	     n/a	     n/a	   714.8	     3733.2
  148.87	  213.75	    1.89	    4.44	   720.6	     3732.5
  617.84	   52.39	    1.66	    3.91	   706.9	     3729.7
  111.07	 1006.18	     n/a	     n/a	   689.5	     3725.3
  596.23	  736.13	    1.45	    3.42	   729.5	     3710.4
  214.98	  694.53	     n/a	     n/a	   714.8	     3710.3
  173.73	  166.79	     n/a	     n/a	   723.0	     3709.4
  248.96	  651.04	     n/a	     n/a	   729.6	     3701.5
  617.02	  623.92	    1.31	    3.07	   726.4	     3700.6
  383.86	  797.53	     n/a	     n/a	   718.9	     3692.8
  715.74	  584.15	    2.41	    5.66	   728.5	     3684.0
  769.98	   16.36	    1.49	    3.49	   703.7	     3678.4
   84.13	   15.71	    3.02	    7.09	   701.4	     3676.0
  247.49	  653.09	     n/a	     n/a	   734.8	     3675.9
  391.24	   53.61	    2.57	    6.04	   721.8	     3672.4
  244.53	  185.17	    2.36	    5.54	   721.9	     3671.1
  471.63	  340.24	     n/a	     n/a	   727.4	     3671.0
  810.34	  469.84	     n/a	     n/a	   719.2	     3668.4
  700.90	  234.46	    1.54	    3.61	   717.0	     3659.7
  127.59	  603.98	    2.35	    5.51	   718.1	     3657.9
  665.28	  613.29	     n/a	     n/a	   723.5	     3657.4
  271.54	  159.07	    2.00	    4.71	   736.3	     3651.3
  975.51	  492.69	     n/a	     n/a	   704.8	     3649.4
  400.57	  404.07	    1.64	    3.85	   754.8	     3646.9
  975.51	  492.69	     n/a	     n/a	   704.8	     3645.4
  249.39	  650.77	    2.37	    5.56	   728.9	     3639.1
  565.49	  615.88	    1.56	    3.67	   736.2	     3637.0
  401.52	  610.88	    2.48	    5.83	   728.0	     3635.8
  339.09	  641.32	    1.71	    4.01	   725.8	     3635.4
  395.49	  904.53	    1.79	    4.20	   712.8	     3633.5
  127.59	  603.98	    2.35	    5.51	   718.1	     3632.9
  272.41	  119.08	     n/a	     n/a	   711.6	     3629.8
  665.05	  613.38	     n/a	     n/a	   723.9	     3623.6
  975.40	  492.81	     n/a	     n/a	   705.0	     3620.1
  795.50	  691.51	    1.53	    3.59	   715.4	     3619.2
  330.44	  395.45	    1.67	    3.92	   748.1	     3617.3
  205.08	  126.33	    2.29	    5.38	   718.4	     3609.9
  662.06	  279.72	    1.39	    3.28	   721.4	     3605.4
  899.68	  797.97	    1.44	    3.39	   706.1	     3605.1
  231.70	  696.66	    1.75	    4.11	   713.8	     3603.1
  173.22	  166.84	     n/a	     n/a	   723.5	     3601.4
  736.32	  242.97	    1.49	    3.49	   714.3	     3596.9
  673.53	  809.55	    2.36	    5.55	   714.9	     3593.2
  206.99	  899.27	    2.24	    5.27	   704.7	     3590.0
  249.50	  650.82	    2.42	    5.68	   728.9	     3586.6
  825.40	  770.88	    1.83	    4.29	   705.3	     3585.3
  120.68	  702.60	     n/a	     n/a	   711.7	     3580.1
  149.52	  597.53	     n/a	     n/a	   724.4	     3579.7
  836.10	  876.76	    1.98	    4.64	   701.0	     3579.6
  754.03	  616.29	    1.85	    4.35	   717.8	     3575.1
  746.40	  153.24	    1.69	    3.98	   709.5	     3572.3
  836.11	  876.64	    1.98	    4.64	   701.1	     3569.6
  505.55	  564.96	    1.85	    4.35	   737.2	     3568.4
  460.98	  861.25	    1.75	    4.11	   715.2	     3566.9
  566.85	  204.77	    1.57	    3.70	   721.1	     3563.3
   39.40	   32.30	     n/a	     n/a	   704.9	     3561.4
  478.46	  758.83	     n/a	     n/a	   724.3	     3557.5
  836.03	  876.65	    1.99	    4.67	   701.1	     3555.8
  566.84	  204.88	    1.58	    3.72	   721.3	     3553.6
  812.59	  254.18	    1.30	    3.05	   710.9	     3553.4
   84.21	   15.83	    2.89	    6.78	   701.6	     3553.1
  812.91	  254.33	    1.28	    3.01	   711.0	     3551.9
  194.59	  153.63	    1.76	    4.13	   727.7	     3549.2
  437.37	  476.03	    2.28	    5.35	   755.0	     3536.1
  391.00	   53.70	     n/a	     n/a	   722.0	     3534.6
  754.03	  616.09	    1.80	    4.24	   717.8	     3534.1
  437.37	  476.03	    2.27	    5.34	   755.1	     3530.9
  151.89	  952.94	    2.02	    4.75	   698.2	     3521.3
  545.51	  716.93	    1.70	    3.99	   718.2	     3518.3
  951.82	   77.65	    1.50	    3.53	   699.4	     3515.2
  231.46	  696.91	    1.90	    4.47	   714.0	     3509.0
  401.60	  610.84	    2.51	    5.89	   727.9	     3506.1
  804.41	  389.60	    2.88	    6.76	   720.6	     3505.4
  882.19	  778.82	    1.49	    3.50	   700.7	     3505.2
  201.23	  310.66	    2.79	    6.56	   726.9	     3499.3
  756.22	  388.77	     n/a	     n/a	   725.5	     3497.8
  561.17	  569.46	    1.64	    3.86	   740.9	     3496.1
  156.59	  516.92	    1.95	    4.58	   711.1	     3489.7
  369.69	  859.98	    1.94	    4.57	   711.4	     3489.7
  504.50	  784.40	     n/a	     n/a	   719.2	     3488.6
  555.35	  468.58	     n/a	     n/a	   745.9	     3487.0
  923.97	  747.27	    1.45	    3.41	   699.9	     3486.6
  804.38	  389.51	    2.90	    6.82	   720.8	     3485.5
 1000.05	  513.32	    2.18	    5.12	   701.2	     3482.9
  178.80	  166.17	    2.58	    6.06	   723.3	     3482.7
  493.40	  251.20	    1.72	    4.03	   719.2	     3475.7
  573.04	  908.65	    1.76	    4.14	   714.6	     3474.9
  619.56	  702.55	    1.06	    2.49	   727.9	     3469.5
  313.06	  105.47	    2.01	    4.73	   715.7	     3465.9
  412.80	   81.34	     n/a	     n/a	   712.8	     3461.5
  374.05	  229.96	    1.47	    3.46	   720.9	     3460.0
  711.67	  196.06	    1.34	    3.15	   712.3	     3458.6
  746.48	  153.44	    1.71	    4.02	   709.6	     3456.1
  113.11	  288.70	    1.83	    4.30	   726.1	     3453.0
  275.58	  554.41	    1.64	    3.86	   726.1	     3452.4
  219.23	  694.99	     n/a	     n/a	   719.3	     3452.2
  204.76	  311.71	     n/a	     n/a	   727.1	     3450.4
  712.95	  422.03	    1.53	    3.60	   726.2	     3450.0
  615.10	   35.35	    1.57	    3.69	   707.7	     3447.1
  350.50	  769.48	    1.88	    4.42	   716.1	     3445.5
  474.92	  657.91	    2.71	    6.38	   730.9	     3445.2
  471.36	  339.78	     n/a	     n/a	   727.6	     3445.0
  356.76	  405.92	    1.54	    3.62	   756.9	     3444.7
  315.07	  836.95	    2.64	    6.20	   711.1	     3432.2
  219.48	  695.00	    2.60	    6.11	   719.5	     3427.2
   36.80	   32.36	     n/a	     n/a	   704.8	     3425.6
  312.98	  105.37	    1.63	    3.84	   715.4	     3405.0
  827.22	  836.09	    1.42	    3.33	   701.2	     3404.8
   43.44	  496.21	    2.68	    6.30	   712.5	     3404.3
  542.30	  401.92	    1.49	    3.50	   742.2	     3398.7
  712.53	  558.56	    1.62	    3.80	   727.3	     3394.9
  300.18	  121.51	     n/a	     n/a	   715.3	     3391.6
  320.10	  579.79	    1.64	    3.85	   737.5	     3390.6
   38.33	   49.15	    2.66	    6.25	   697.2	     3381.9
  271.79	  119.07	    1.56	    3.66	   711.7	     3381.1
  605.06	  615.29	    1.55	    3.64	   727.9	     3380.7
  276.57	  324.94	    1.60	    3.76	   739.5	     3376.6
  313.07	  105.37	    1.70	    4.00	   715.6	     3374.6
  805.18	  394.27	     n/a	     n/a	   722.0	     3369.9
  605.04	  273.47	    1.83	    4.31	   722.5	     3366.7
  851.42	   46.20	     n/a	     n/a	   701.3	     3362.6
  609.68	  204.01	    1.44	    3.39	   718.4	     3354.0
  152.00	  952.41	    2.17	    5.11	   698.6	     3351.0
  614.23	  504.28	     n/a	     n/a	   733.4	     3346.4
  184.71	  888.99	    1.96	    4.61	   703.0	     3344.5
   16.74	   33.92	     n/a	     n/a	   697.0	     3340.6
  479.61	  758.71	     n/a	     n/a	   726.5	     3340.5
  286.16	  697.59	    1.86	    4.36	   720.2	     3338.7
  121.52	  615.50	    2.05	    4.81	   713.7	     3333.9
  715.99	  244.96	    1.39	    3.26	   714.3	     3330.0
   43.36	  496.58	     n/a	     n/a	   712.5	     3329.3
  373.34	  146.18	     n/a	     n/a	   721.0	     3327.7
  300.33	  121.98	     n/a	     n/a	   714.8	     3327.2
  219.60	  695.01	    2.82	    6.64	   719.6	     3323.9
  745.06	  167.06	    1.50	    3.54	   708.4	     3319.5
  600.85	 1001.78	    1.91	    4.49	   703.1	     3311.8
  326.03	  997.89	     n/a	     n/a	   703.4	     3308.9
   43.49	  496.41	    2.39	    5.61	   712.5	     3306.1
  288.23	  530.46	    2.86	    6.71	   728.4	     3305.2
  250.34	  650.29	     n/a	     n/a	   729.0	     3304.4
  851.57	   46.18	    2.65	    6.23	   701.1	     3303.5
  369.54	  991.74	    2.63	    6.18	   701.1	     3302.8
  219.84	  695.00	    2.91	    6.83	   719.9	     3300.7
  599.67	   53.03	    1.66	    3.90	   707.8	     3290.6
   74.85	  526.64	    2.09	    4.90	   705.5	     3289.3
  415.78	   84.41	    1.97	    4.63	   712.5	     3283.3
  817.63	  393.67	    1.67	    3.93	   718.4	     3281.5
  308.54	  542.86	    2.70	    6.34	   730.2	     3280.9
  702.20	  258.21	    1.45	    3.40	   719.9	     3278.2
  320.10	  579.98	    1.63	    3.83	   738.3	     3271.8
  817.73	  393.70	    1.66	    3.89	   718.3	     3267.9
  521.57	  332.13	    1.41	    3.31	   722.9	     3266.5
  144.67	  138.12	    1.96	    4.60	   717.3	     3262.3
  345.09	  216.68	    1.85	    4.35	   722.1	     3260.4
  300.47	  122.31	     n/a	     n/a	   715.3	     3260.4
  126.25	  598.06	    2.52	    5.93	   722.3	     3257.6
  201.00	  310.58	    2.69	    6.33	   726.8	     3252.8
  369.55	  991.54	    2.30	    5.41	   701.1	     3243.9
  316.58	  410.09	    1.55	    3.63	   744.5	     3243.0
  713.71	  472.02	    1.30	    3.05	   726.6	     3241.0
  947.65	  777.32	     n/a	     n/a	   700.7	     3240.1
  286.41	  697.02	    2.01	    4.72	   720.3	     3235.5
   17.02	   34.04	     n/a	     n/a	   697.2	     3233.8
  201.00	  310.68	    2.68	    6.29	   727.1	     3233.0
  462.63	  753.50	    1.66	    3.90	   722.1	     3229.3
  543.12	  356.61	     n/a	     n/a	   726.2	     3222.1
  323.95	  415.58	    1.68	    3.96	   746.0	     3220.4
  918.28	  697.03	    2.53	    5.95	   703.5	     3212.4
  489.74	  155.14	    1.73	    4.06	   710.1	     3210.6
  324.00	  415.49	    1.70	    4.00	   746.2	     3206.8
  557.70	  817.85	     n/a	     n/a	   714.0	     3206.3
  492.62	  794.43	    1.75	    4.12	   722.3	     3203.9
  412.61	   81.32	     n/a	     n/a	   712.8	     3202.7
  420.29	  239.98	    1.45	    3.41	   717.4	     3202.0
  506.33	  781.99	    1.57	    3.69	   722.5	     3195.8
  750.03	  620.48	     n/a	     n/a	   720.0	     3187.8
   33.63	  164.97	     n/a	     n/a	   704.7	     3173.3
  370.69	  565.09	     n/a	     n/a	   744.5	     3169.6
  978.36	  146.69	     n/a	     n/a	   697.6	     3169.1
  616.53	  559.63	    1.47	    3.46	   733.0	     3159.9
   33.77	  164.97	    2.36	    5.55	   704.9	     3159.0
  246.38	  646.42	     n/a	     n/a	   726.2	     3155.3
   16.28	   32.53	     n/a	     n/a	   697.6	     3154.6
  200.43	  102.15	     n/a	     n/a	   714.2	     3153.4
  859.30	  649.02	    1.60	    3.76	   710.1	     3151.4
  239.10	  456.56	    1.81	    4.26	   743.5	     3149.0
  415.98	   84.84	    2.11	    4.96	   712.9	     3147.2
  184.04	  778.27	    1.81	    4.24	   707.5	     3145.4
  236.17	  464.77	    1.59	    3.73	   745.1	     3136.8
  173.91	  548.86	     n/a	     n/a	   717.1	     3136.5
  390.27	   65.76	    1.77	    4.17	   715.0	     3133.9
  308.60	  814.92	    1.98	    4.65	   707.2	     3133.4
  749.90	  620.74	     n/a	     n/a	   720.2	     3132.9
  762.50	  449.85	    1.53	    3.59	   725.6	     3125.3
  232.07	  383.97	    1.66	    3.90	   742.7	     3124.5
  397.95	  303.19	    2.74	    6.43	   724.9	     3119.4
   41.16	  579.67	    2.36	    5.54	   699.9	     3118.0
  449.35	  865.22	     n/a	     n/a	   712.7	     3117.7
  750.16	  620.68	     n/a	     n/a	   719.9	     3115.0
  557.94	  817.87	     n/a	     n/a	   713.6	     3106.2
  553.60	  654.04	    2.32	    5.46	   729.9	     3106.2
  554.06	  469.25	     n/a	     n/a	   746.3	     3098.9
   41.12	  579.91	    2.34	    5.51	   700.0	     3096.9
  117.12	  584.33	     n/a	     n/a	   721.5	     3088.8
  661.19	  612.20	    2.55	    5.99	   729.0	     3086.0
  755.02	  390.31	    1.90	    4.46	   726.7	     3083.4
  123.25	  807.09	    2.05	    4.81	   713.9	     3082.7
  422.01	  780.93	    1.64	    3.85	   724.7	     3080.2
  317.32	  242.91	    1.89	    4.45	   729.5	     3079.5
  557.80	  817.73	     n/a	     n/a	   713.9	     3078.6
  321.24	  490.48	     n/a	     n/a	   738.8	     3076.0
  487.04	  344.91	    1.34	    3.14	   733.8	     3069.6
  949.68	  858.99	    1.57	    3.69	   699.8	     3068.2
   75.68	  806.13	     n/a	     n/a	   704.6	     3066.1
  643.34	  482.06	    1.53	    3.60	   732.6	     3064.9
  895.47	  378.98	    1.54	    3.61	   707.3	     3064.5
  742.52	  923.49	    1.74	    4.08	   702.8	     3060.0
  115.46	  477.17	    1.78	    4.18	   716.7	     3059.3
  694.51	  265.06	    1.65	    3.87	   726.4	     3054.2
  359.03	  579.97	    1.75	    4.12	   728.8	     3051.3
  541.61	  360.04	     n/a	     n/a	   729.3	     3051.0
  725.65	  629.71	    2.06	    4.83	   736.2	     3048.1
  945.99	  779.00	    1.48	    3.48	   700.1	     3046.6
  376.04	  575.00	    1.65	    3.88	   731.7	     3044.5
  201.15	  102.03	    2.97	    6.99	   714.6	     3043.4
  126.38	  597.97	    2.26	    5.31	   722.6	     3042.2
  102.56	  444.45	    1.93	    4.53	   723.6	     3032.7
  321.51	  490.56	    2.97	    6.98	   738.6	     3030.4
  224.55	  428.98	    1.74	    4.08	   735.6	     3028.6
  613.24	  874.81	    1.83	    4.31	   710.8	     3027.9
  102.56	  444.45	    1.93	    4.53	   723.6	     3027.3
  610.81	  790.90	     n/a	     n/a	   720.3	     3025.1
  385.30	  474.79	    1.63	    3.83	   756.2	     3023.6
  566.22	   26.08	    1.91	    4.50	   710.5	     3022.6
  430.57	  348.49	    2.43	    5.70	   731.1	     3021.4
  349.68	   94.65	     n/a	     n/a	   715.9	     3021.1
  266.95	  825.52	    2.54	    5.98	   712.6	     3020.8
  430.57	  348.49	    2.43	    5.70	   731.1	     3019.5
  539.67	  952.89	    2.09	    4.91	   704.3	     3018.7
  232.27	  383.96	    1.73	    4.06	   743.4	     3018.7
  141.92	  335.29	    2.75	    6.47	   722.7	     3017.8
  430.57	  348.49	    2.42	    5.70	   731.2	     3016.6
  266.94	  825.54	    2.54	    5.97	   712.7	     3016.3
  344.94	  432.59	     n/a	     n/a	   759.8	     3015.1
  126.16	  598.00	    2.23	    5.24	   722.5	     3015.1
  301.11	  122.75	     n/a	     n/a	   715.9	     3012.0
  615.53	  900.54	    1.73	    4.07	   704.6	     3009.8
  563.26	  804.23	    1.78	    4.18	   712.9	     3009.8
  615.53	  900.55	    1.73	    4.07	   704.6	     3008.4
  321.51	  490.56	     n/a	     n/a	   738.6	     3005.9
  622.82	  169.42	    1.55	    3.63	   714.9	     3005.6
  513.72	  244.01	    1.73	    4.07	   720.3	     3005.6
  373.99	  147.87	     n/a	     n/a	   722.6	     3002.0
  476.06	  902.89	    1.87	    4.40	   709.5	     3001.9
  394.12	  790.52	    2.15	    5.05	   719.1	     2997.1
 1000.04	  872.61	    1.61	    3.78	   692.3	     2996.3
  144.07	  986.95	    2.02	    4.75	   697.4	     2995.7
   24.73	  999.94	    2.19	    5.14	   684.5	     2990.7
  215.77	  412.03	    1.76	    4.14	   737.9	     2990.2
  349.43	   95.17	     n/a	     n/a	   715.0	     2989.9
  931.27	  372.03	    1.38	    3.25	   706.8	     2987.7
  554.05	  654.40	    2.01	    4.72	   729.8	     2987.5
  979.75	  146.67	     n/a	     n/a	   697.5	     2979.9
  700.61	  244.40	    1.57	    3.69	   719.2	     2975.7
   28.40	  558.94	    2.62	    6.15	   705.5	     2974.9
  136.90	  789.25	     n/a	     n/a	   713.0	     2971.9
   84.23	  870.43	    2.05	    4.83	   691.2	     2969.9
  265.16	   91.33	     n/a	     n/a	   717.5	     2967.1
  557.49	  526.11	    1.48	    3.47	   741.8	     2966.8
   28.31	  558.98	    2.58	    6.06	   705.5	     2964.6
  234.32	  159.90	    1.79	    4.21	   721.4	     2961.5
   25.25	  913.28	    2.17	    5.11	   692.1	     2960.5
  345.38	  196.85	     n/a	     n/a	   721.3	     2959.6
  310.45	  753.77	     n/a	     n/a	   725.4	     2954.6
  660.79	  423.49	    1.58	    3.72	   727.4	     2952.6
  703.01	 1005.31	    2.16	    5.07	   698.6	     2951.5
  318.32	  646.66	    2.69	    6.33	   724.5	     2950.4
  111.12	   71.73	    2.04	    4.80	   705.9	     2949.2
  475.04	  658.29	    2.59	    6.09	   731.0	     2948.5
  563.68	  804.06	    1.84	    4.31	   713.1	     2948.4
  414.11	  415.70	    1.78	    4.19	   750.0	     2947.2
  475.04	  658.29	    2.59	    6.08	   731.0	     2942.7
   15.00	   33.59	     n/a	     n/a	   696.7	     2942.3
   31.92	  116.22	    1.95	    4.59	   703.7	     2942.1
  563.78	  804.13	    1.83	    4.29	   713.2	     2940.5
  350.43	  903.76	     n/a	     n/a	   708.6	     2939.4
  394.15	  790.62	    2.01	    4.73	   719.3	     2937.6
  994.23	  391.74	    1.29	    3.04	   701.2	     2932.1
  318.48	  646.81	    2.64	    6.21	   724.8	     2929.4
   25.53	  913.10	    2.31	    5.42	   692.3	     2929.1
  613.89	  504.32	    1.39	    3.26	   733.7	     2929.0
  559.80	  803.46	     n/a	     n/a	   713.3	     2927.5
  591.28	  457.74	    1.49	    3.50	   737.6	     2926.8
  613.94	  504.50	    1.40	    3.30	   733.7	     2920.7
  852.00	  900.42	    1.56	    3.66	   697.8	     2915.9
  734.57	  301.45	    1.84	    4.33	   718.1	     2915.0
  254.94	  925.22	    1.86	    4.37	   699.9	     2913.9
  668.83	  311.59	    1.43	    3.36	   726.5	     2912.5
   76.57	  805.98	     n/a	     n/a	   704.4	     2910.7
  450.69	  864.48	    1.68	    3.94	   715.0	     2907.8
  428.82	  530.50	     n/a	     n/a	   739.9	     2905.5
  464.98	  137.03	    1.57	    3.69	   712.1	     2903.6
  345.05	  196.35	    1.75	    4.12	   721.2	     2901.3
  326.90	  993.74	    2.55	    5.99	   705.7	     2898.8
  574.19	  921.00	    2.25	    5.29	   712.7	     2897.8
  734.45	  301.50	    1.84	    4.33	   718.4	     2896.2
  326.90	  993.74	    2.55	    5.99	   705.7	     2896.1
  747.42	  747.09	     n/a	     n/a	   712.8	     2891.9
  171.58	  434.06	    1.75	    4.12	   725.8	     2890.5
  881.07	  883.61	    1.59	    3.73	   699.6	     2886.2
  510.76	  604.99	    1.63	    3.84	   739.4	     2885.2
  583.06	  436.49	     n/a	     n/a	   744.4	     2881.4
  357.05	  306.39	    1.69	    3.97	   725.6	     2879.8
   76.58	  805.98	     n/a	     n/a	   704.3	     2878.6
  553.99	  469.99	     n/a	     n/a	   746.1	     2877.6
  510.76	  604.99	    1.64	    3.85	   739.6	     2874.2
  456.52	  551.50	    1.96	    4.62	   740.0	     2869.6
  559.08	  940.90	    1.63	    3.83	   705.4	     2868.1
   14.54	  905.52	     n/a	     n/a	   696.6	     2862.2
   58.31	  280.88	    2.07	    4.87	   711.5	     2860.4
  428.11	  530.85	    2.36	    5.55	   739.8	     2860.0
  364.35	  749.00	    1.86	    4.36	   714.2	     2857.3
  277.16	  155.13	    2.94	    6.90	   724.0	     2854.7
  821.30	  348.78	    1.29	    3.04	   713.9	     2854.6
  628.51	  411.01	    2.09	    4.90	   730.5	     2852.6
  293.09	  673.91	    1.83	    4.30	   720.8	     2851.1
  220.04	  695.02	    2.71	    6.37	   720.4	     2850.7
  232.16	  983.06	    1.92	    4.50	   698.4	     2843.3
  255.53	  156.84	    1.63	    3.82	   725.7	     2840.3
  319.34	  628.90	    1.81	    4.26	   730.0	     2839.3
  317.13	  305.99	    2.12	    4.98	   737.9	     2836.0
  340.31	   62.05	    1.72	    4.05	   713.8	     2832.4
  392.84	  638.08	     n/a	     n/a	   735.1	     2830.4
  951.76	  713.17	    1.45	    3.41	   702.5	     2829.7
  197.12	  277.07	    2.45	    5.77	   729.9	     2828.7
  770.95	  982.90	    1.59	    3.75	   701.3	     2828.5
  716.72	  576.14	     n/a	     n/a	   726.4	     2828.3
  908.01	  761.26	    1.46	    3.43	   704.3	     2825.3
  643.54	  256.53	     n/a	     n/a	   719.3	     2825.3
  562.68	  625.57	     n/a	     n/a	   736.0	     2821.2
  668.68	  311.93	    1.27	    2.98	   727.2	     2819.0
  390.89	  410.35	     n/a	     n/a	   753.3	     2818.1
  628.72	  410.99	    2.05	    4.81	   730.8	     2811.5
  736.52	  653.90	    1.44	    3.38	   720.9	     2809.5
  634.65	  818.92	    1.72	    4.03	   714.2	     2804.5
  185.95	   64.99	    2.56	    6.01	   709.1	     2802.2
  661.96	  200.01	    1.41	    3.31	   727.0	     2800.1
  217.81	  980.09	     n/a	     n/a	   698.0	     2793.7
  660.61	  423.81	    1.54	    3.62	   727.6	     2792.9
  495.08	  657.25	    1.36	    3.19	   732.2	     2786.5
  217.69	  199.08	     n/a	     n/a	   723.3	     2783.8
  574.28	  920.92	    2.30	    5.40	   713.9	     2778.7
  845.24	  918.80	    1.71	    4.01	   698.5	     2777.5
  542.97	  358.50	    3.12	    7.33	   727.6	     2776.4
  963.23	   70.29	     n/a	     n/a	   697.8	     2774.4
   16.39	  902.76	    2.04	    4.79	   700.4	     2771.8
  660.52	  423.62	    1.56	    3.67	   727.8	     2769.7
   81.04	  892.64	    2.12	    4.99	   697.6	     2768.1
  272.04	  225.36	    1.66	    3.90	   739.2	     2766.6
  659.63	  188.54	     n/a	     n/a	   715.5	     2764.3
  861.67	  108.86	    1.49	    3.49	   700.0	     2760.8
  690.53	  428.09	    1.65	    3.89	   734.5	     2760.6
  255.86	  156.68	    1.63	    3.84	   726.1	     2754.2
  710.73	  506.81	    2.02	    4.74	   729.0	     2749.7
  749.95	  716.93	    1.64	    3.85	   717.2	     2747.3
  481.53	  758.34	    2.37	    5.57	   729.3	     2743.9
  469.54	   23.81	    2.39	    5.61	   705.8	     2743.6
  481.46	  758.11	    2.42	    5.70	   729.5	     2742.8
  542.47	  359.26	     n/a	     n/a	   728.0	     2735.0
  559.51	  940.42	    1.70	    3.99	   706.4	     2734.3
  619.17	  502.64	     n/a	     n/a	   736.2	     2731.9
  803.87	  191.45	    1.45	    3.41	   705.7	     2731.6
  337.82	  747.83	    2.03	    4.76	   715.7	     2730.4
  296.45	  671.90	     n/a	     n/a	   722.7	     2729.7
  216.21	  528.81	    1.82	    4.27	   722.3	     2728.8
  619.24	  502.71	     n/a	     n/a	   736.2	     2727.2
  255.93	  156.56	    1.65	    3.88	   726.3	     2725.4
  251.60	  686.71	    1.71	    4.03	   722.5	     2724.2
  921.73	  724.65	     n/a	     n/a	   703.3	     2723.6
  460.04	  572.71	    2.04	    4.80	   735.5	     2722.8
  251.61	  686.47	    1.75	    4.11	   722.4	     2722.4
  658.50	  712.84	    1.74	    4.08	   718.3	     2721.5
  681.97	  401.36	    1.40	    3.30	   734.7	     2720.4
  460.04	  572.93	    2.04	    4.80	   735.3	     2720.3
  317.48	  998.80	     n/a	     n/a	   714.4	     2720.0
  826.71	  539.12	    1.35	    3.16	   712.2	     2719.7
  586.97	  999.94	    1.61	    3.79	   702.7	     2719.3
   16.30	  902.58	    2.05	    4.82	   700.4	     2717.0
  964.00	  497.07	     n/a	     n/a	   706.5	     2716.8
  655.74	  563.98	    2.44	    5.73	   728.7	     2715.1
  114.82	  224.28	    2.16	    5.08	   720.4	     2714.0
   37.03	  288.97	    1.90	    4.46	   709.3	     2711.5
  288.50	  361.89	    1.70	    4.00	   739.2	     2707.2
  542.97	  358.39	    2.89	    6.79	   727.5	     2706.3
  544.08	  595.83	     n/a	     n/a	   732.3	     2706.2
  172.49	  318.44	    1.99	    4.67	   725.1	     2701.5
  562.83	  625.32	     n/a	     n/a	   736.6	     2701.0
  481.30	  758.35	    2.25	    5.30	   729.4	     2699.7
  346.51	  702.86	     n/a	     n/a	   727.5	     2699.4
  980.10	  146.65	    2.36	    5.54	   697.4	     2697.2
  596.30	  530.11	    1.45	    3.41	   732.3	     2695.4
  911.31	  475.11	    1.25	    2.94	   704.4	     2692.9
  447.54	  471.11	    1.70	    3.99	   749.9	     2692.2
  725.19	  629.76	    1.47	    3.45	   738.6	     2689.3
  347.07	  436.46	    2.53	    5.94	   760.2	     2684.2
  711.51	  714.97	    1.54	    3.61	   715.8	     2679.5
  544.74	  594.91	    1.77	    4.16	   732.7	     2677.8
  247.91	  977.86	     n/a	     n/a	   698.3	     2676.8
  103.30	  491.62	    2.16	    5.07	   719.2	     2676.7
  407.34	  758.97	    1.66	    3.89	   721.0	     2668.7
  205.56	  162.15	     n/a	     n/a	   728.1	     2668.1
  346.86	  436.62	     n/a	     n/a	   760.3	     2667.2
  154.99	  849.97	    1.91	    4.49	   703.6	     2667.1
  151.18	  596.52	    2.58	    6.05	   724.9	     2666.6
  374.01	  148.64	    2.44	    5.73	   723.0	     2663.4
  553.59	  470.33	    1.86	    4.38	   746.8	     2656.8
  980.19	  146.81	    2.39	    5.62	   697.8	     2653.6
  880.93	  386.05	    1.40	    3.29	   708.7	     2651.4
  949.65	  134.95	    1.50	    3.53	   701.9	     2651.0
  151.11	  596.61	     n/a	     n/a	   725.1	     2650.8
  715.35	  797.06	    1.54	    3.63	   708.1	     2647.5
  346.97	  436.60	     n/a	     n/a	   760.5	     2646.6
  574.47	  113.49	    1.60	    3.75	   723.6	     2645.9
  902.72	  226.30	    1.53	    3.59	   701.2	     2643.7
  168.53	  204.62	     n/a	     n/a	   727.6	     2643.0
  664.09	  319.31	     n/a	     n/a	   726.7	     2642.8
  141.01	  156.33	    2.05	    4.83	   717.1	     2642.7
  491.06	  598.98	    1.83	    4.30	   733.8	     2641.7
  277.13	  223.27	     n/a	     n/a	   732.1	     2639.8
  837.83	  477.63	    1.53	    3.61	   714.2	     2639.3
  720.59	  269.41	    1.37	    3.21	   717.8	     2634.5
  747.14	  747.90	    2.78	    6.53	   713.5	     2633.7
  143.34	  601.80	     n/a	     n/a	   730.2	     2630.1
  698.18	   65.84	    1.69	    3.97	   709.6	     2629.7
   31.22	  737.45	    2.05	    4.82	   704.7	     2627.8
  196.27	  586.14	    1.95	    4.58	   723.8	     2626.3
  320.23	  122.94	     n/a	     n/a	   716.6	     2623.0
  415.83	  519.21	    1.63	    3.82	   738.3	     2619.9
 1002.93	  896.38	    2.55	    5.99	   692.1	     2614.9
  664.11	  319.18	     n/a	     n/a	   727.1	     2612.9
  157.88	  806.41	     n/a	     n/a	   714.2	     2610.5
  832.55	  397.19	    1.45	    3.41	   718.0	     2606.4
  403.83	  489.22	    2.36	    5.55	   748.8	     2604.5
  462.24	  923.35	     n/a	     n/a	   706.9	     2602.9
   79.90	  732.44	     n/a	     n/a	   705.1	     2602.9
  554.46	  585.53	    1.70	    3.99	   740.8	     2602.0
  158.07	  728.66	    2.97	    6.98	   707.3	     2601.2
  200.99	  140.95	     n/a	     n/a	   721.2	     2601.0
  318.80	  122.17	     n/a	     n/a	   718.2	     2597.4
  639.03	  138.07	    1.60	    3.76	   714.1	     2594.8
  553.93	  514.24	     n/a	     n/a	   746.0	     2594.6
  415.04	  105.59	    2.22	    5.22	   714.6	     2594.3
  167.12	  497.63	    1.96	    4.60	   715.4	     2592.5
   70.00	  704.67	     n/a	     n/a	   705.6	     2592.3
  894.98	  303.09	    1.39	    3.26	   707.2	     2589.8
  789.00	  694.05	    1.28	    3.00	   714.9	     2589.1
  190.88	  508.73	    2.27	    5.34	   721.2	     2586.4
  407.17	  867.25	    2.48	    5.82	   714.9	     2583.1
  789.00	  694.04	    1.27	    3.00	   715.0	     2581.5
 1002.38	  460.35	     n/a	     n/a	   701.8	     2580.4
  592.00	  517.94	    1.29	    3.03	   732.3	     2579.0
  462.25	  923.35	     n/a	     n/a	   706.9	     2578.8
  529.60	  952.41	    1.76	    4.14	   705.0	     2576.8
  652.01	  820.93	    1.90	    4.46	   706.6	     2570.1
  834.48	  738.53	    1.71	    4.02	   707.2	     2568.6
  838.85	  872.18	    2.18	    5.11	   705.6	     2567.9
  346.97	  436.60	     n/a	     n/a	   760.5	     2567.1
  303.11	  644.05	    1.83	    4.31	   721.1	     2566.5
  960.18	  442.93	    1.31	    3.08	   703.1	     2566.0
  245.89	  645.76	    2.70	    6.35	   726.8	     2563.8
  302.28	  959.10	    1.79	    4.21	   704.5	     2563.7
  865.90	  325.49	    1.93	    4.54	   711.6	     2563.4
  326.52	  916.90	    1.96	    4.60	   712.1	     2560.9
  448.75	  151.07	    1.57	    3.69	   717.0	     2559.4
  956.47	   90.42	     n/a	     n/a	   694.1	     2559.0
  318.11	   74.37	    1.77	    4.16	   713.5	     2557.8
  163.96	  603.43	    2.23	    5.25	   722.9	     2556.5
  448.75	  151.07	    1.57	    3.69	   717.0	     2556.0
  709.74	  447.01	    2.73	    6.40	   732.1	     2552.7
  574.99	  938.03	    2.57	    6.04	   699.4	     2550.3
  278.56	  608.13	    2.52	    5.92	   728.5	     2549.2
  832.46	  397.14	    1.41	    3.32	   718.1	     2547.8
  135.20	  785.60	    2.52	    5.93	   712.0	     2546.6
  194.56	  198.56	    1.87	    4.39	   723.0	     2545.7
  554.04	  514.68	    1.36	    3.19	   746.5	     2544.8
  245.78	  645.78	    2.67	    6.26	   727.0	     2544.3
  246.35	  654.56	     n/a	     n/a	   738.7	     2541.0
  784.97	  879.95	    1.74	    4.09	   703.7	     2540.3
   90.02	  797.02	    2.02	    4.74	   702.8	     2534.1
  135.06	  785.65	    2.60	    6.12	   712.3	     2529.3
  248.12	  977.83	     n/a	     n/a	   698.9	     2527.3
  946.84	  104.52	    1.63	    3.83	   694.6	     2527.3
  853.25	  859.12	    1.89	    4.45	   703.8	     2526.2
  162.37	  292.16	    1.78	    4.18	   726.8	     2525.0
  135.06	  785.64	    2.60	    6.11	   712.4	     2522.7
  633.88	  562.19	    1.32	    3.11	   735.8	     2520.4
  709.93	  447.01	    2.71	    6.38	   732.4	     2519.9
  615.44	  699.46	     n/a	     n/a	   735.8	     2516.7
  553.46	  470.46	    1.89	    4.44	   746.9	     2516.0
  280.95	  316.79	    2.80	    6.58	   735.0	     2514.4
 1001.86	  461.44	    2.15	    5.06	   701.2	     2509.7
  309.81	  673.32	     n/a	     n/a	   724.9	     2509.6
  865.94	  325.19	    1.88	    4.43	   711.8	     2507.2
  373.99	  148.98	    2.67	    6.26	   723.9	     2504.5
   49.37	  367.57	    2.24	    5.25	   714.1	     2501.7
  203.05	  102.06	     n/a	     n/a	   715.0	     2499.4
  414.04	  161.04	    1.62	    3.82	   716.0	     2499.3
  264.06	  749.44	    1.87	    4.39	   713.7	     2495.6
  687.32	  655.90	     n/a	     n/a	   719.0	     2494.0
  660.59	  189.12	    1.81	    4.25	   717.1	     2489.6
  249.59	  417.01	     n/a	     n/a	   738.2	     2486.6
  739.31	  300.09	    2.30	    5.40	   718.1	     2484.9
  969.92	  746.38	     n/a	     n/a	   703.6	     2479.1
  519.05	  930.91	    2.01	    4.72	   705.9	     2477.0
  271.88	  892.33	    2.54	    5.97	   710.1	     2472.8
  769.91	   77.46	    1.52	    3.56	   704.8	     2471.1
  147.63	  561.26	    2.85	    6.70	   711.9	     2468.7
 1001.81	  461.16	    2.07	    4.88	   701.2	     2467.8
  198.24	  102.78	     n/a	     n/a	   715.3	     2463.4
 1001.83	  461.15	    2.07	    4.86	   701.2	     2463.2
  638.02	  418.96	    1.32	    3.11	   730.5	     2458.0
  177.83	  221.07	    1.86	    4.37	   741.8	     2455.0
  647.11	  596.06	    2.39	    5.61	   728.3	     2451.6
  187.32	   21.95	     n/a	     n/a	   700.3	     2450.7
  100.25	   92.81	    1.80	    4.22	   709.3	     2449.6
  271.87	  892.19	    2.44	    5.74	   710.5	     2446.4
  720.22	  102.22	    1.63	    3.83	   709.2	     2446.3
  317.76	  121.87	    2.44	    5.73	   719.6	     2443.3
  446.29	   33.80	    1.64	    3.86	   706.4	     2443.2
  467.85	  225.48	     n/a	     n/a	   718.6	     2442.9
  100.26	   92.81	    1.79	    4.21	   709.4	     2442.4
  203.62	  101.81	    2.28	    5.35	   715.5	     2435.1
  588.65	  639.06	    1.82	    4.28	   734.7	     2435.1
  606.23	  942.26	    1.85	    4.35	   703.4	     2433.8
  147.82	  561.22	    2.99	    7.02	   711.9	     2433.8
  403.06	  928.95	    1.83	    4.31	   714.0	     2432.9
  936.02	   81.97	     n/a	     n/a	   694.3	     2431.8
  300.83	  479.85	    1.93	    4.54	   752.4	     2431.1
  147.80	  561.39	    2.97	    6.98	   711.9	     2427.4
  261.81	  947.23	    2.22	    5.22	   703.1	     2424.4
  108.23	  681.18	    1.83	    4.30	   712.8	     2422.6
  796.70	  451.93	    1.39	    3.27	   718.1	     2415.6
  789.31	  362.07	    1.54	    3.62	   714.9	     2415.4
  269.46	  867.89	    2.12	    4.99	   709.0	     2414.6
  819.91	  994.05	    2.30	    5.41	   695.6	     2414.0
  706.71	  366.93	    1.38	    3.23	   721.0	     2408.3
  712.52	 1007.18	     n/a	     n/a	   696.1	     2406.9
  387.57	  682.21	     n/a	     n/a	   728.8	     2405.0
  462.70	  876.90	    1.92	    4.51	   708.7	     2405.0
  393.52	  639.07	    1.98	    4.65	   735.6	     2404.2
  108.01	  935.91	    1.90	    4.46	   707.4	     2403.9
  439.89	  921.72	    1.96	    4.60	   705.6	     2402.7
  432.19	  530.46	     n/a	     n/a	   741.9	     2402.0
  160.56	  812.93	    2.15	    5.06	   706.9	     2398.5
  692.18	  340.66	     n/a	     n/a	   726.2	     2396.4
  375.94	   32.80	    1.63	    3.83	   711.5	     2394.4
  241.13	  994.21	    1.73	    4.07	   700.3	     2390.9
  346.14	  437.03	     n/a	     n/a	   762.1	     2387.2
  393.39	  639.09	    1.96	    4.60	   735.8	     2385.0
  338.66	  249.88	    2.04	    4.79	   723.4	     2384.1
  969.97	  747.65	    2.10	    4.93	   703.7	     2381.5
  160.43	  813.02	    2.12	    4.99	   707.0	     2380.0
  308.86	  717.79	    2.92	    6.87	   719.3	     2379.6
  125.98	  551.98	    2.17	    5.11	   709.5	     2377.0
  363.33	  821.61	    2.72	    6.38	   714.0	     2375.3
  581.50	  847.30	    1.77	    4.15	   712.9	     2372.8
  579.57	  299.12	    1.55	    3.63	   721.5	     2368.0
  171.70	  550.73	    2.49	    5.85	   720.0	     2365.4
   82.61	  652.26	     n/a	     n/a	   708.4	     2361.6
  631.18	  514.37	    2.02	    4.75	   732.5	     2360.2
  497.68	  493.97	    1.70	    4.00	   747.8	     2358.8
  563.90	  625.23	    3.14	    7.38	   737.9	     2357.3
  246.49	  236.50	     n/a	     n/a	   725.6	     2355.7
  468.00	  841.96	    1.82	    4.28	   714.7	     2354.8
  189.01	  128.58	    1.94	    4.57	   717.2	     2354.2
  989.76	   34.93	    1.49	    3.49	   686.6	     2351.3
  956.01	   95.63	    2.48	    5.82	   696.9	     2350.9
  888.02	   66.08	    1.44	    3.39	   697.6	     2349.7
  956.01	   95.63	    2.47	    5.81	   696.9	     2349.7
  969.89	  747.93	    2.26	    5.30	   703.6	     2347.9
   82.82	  652.17	     n/a	     n/a	   708.3	     2343.8
  363.59	  821.79	     n/a	     n/a	   714.3	     2341.5
   65.52	  974.11	     n/a	     n/a	   695.8	     2338.2
  470.67	  296.12	    1.50	    3.53	   729.0	     2337.8
  605.80	  791.52	    2.71	    6.37	   721.2	     2337.8
  510.26	  127.61	     n/a	     n/a	   715.6	     2336.0
  171.98	  619.48	     n/a	     n/a	   723.9	     2334.7
  812.48	  157.95	    1.42	    3.35	   711.0	     2334.0
  656.08	  602.67	    1.42	    3.33	   731.0	     2333.0
  551.55	  462.94	    1.48	    3.49	   748.3	     2331.9
  413.06	  353.98	    1.51	    3.54	   730.9	     2326.5
  378.02	  441.64	    1.74	    4.09	   750.5	     2326.0
  360.51	  921.92	    2.57	    6.04	   715.1	     2324.8
  574.85	  649.14	    2.17	    5.10	   727.6	     2324.2
  390.37	  537.04	    1.57	    3.68	   736.6	     2322.6
 1002.20	  948.25	    1.68	    3.96	   680.9	     2322.0
  308.77	  717.91	     n/a	     n/a	   719.2	     2318.7
 1006.86	  399.00	     n/a	     n/a	   698.6	     2316.5
  654.26	  259.16	    1.53	    3.60	   722.4	     2315.8
  790.15	  846.55	    1.53	    3.59	   707.3	     2315.3
   65.67	  974.09	     n/a	     n/a	   695.6	     2313.9
  538.07	  885.92	    1.51	    3.55	   720.0	     2313.7
   89.92	  902.79	    2.71	    6.37	   694.7	     2309.1
  605.62	  791.52	    2.70	    6.36	   721.2	     2304.8
  924.44	  312.29	     n/a	     n/a	   706.9	     2304.7
  605.62	  791.52	    2.70	    6.35	   721.2	     2302.4
  685.95	  487.21	     n/a	     n/a	   728.9	     2301.3
  363.59	  821.80	     n/a	     n/a	   714.3	     2299.9
  198.00	  102.89	     n/a	     n/a	   715.9	     2297.3
  519.60	  423.45	    1.43	    3.35	   739.2	     2297.1
  759.27	   94.02	    1.42	    3.34	   703.7	     2296.5
  923.87	  312.58	     n/a	     n/a	   706.7	     2294.8
  667.48	  559.30	     n/a	     n/a	   726.5	     2291.8
  134.09	  669.95	    1.99	    4.68	   711.3	     2290.6
  302.99	  516.12	    2.65	    6.23	   733.4	     2288.0
  845.99	 1009.25	    1.77	    4.17	   688.9	     2287.8
  173.01	  616.46	     n/a	     n/a	   721.7	     2286.5
  952.72	  218.29	    1.48	    3.49	   698.9	     2282.7
   66.15	  420.05	    2.14	    5.02	   714.9	     2281.6
  857.31	  884.93	    1.72	    4.05	   701.2	     2280.7
  345.97	  703.41	    1.61	    3.79	   729.2	     2279.8
  157.11	  684.84	    1.99	    4.68	   715.8	     2278.8
  897.94	  161.34	    1.43	    3.35	   698.3	     2277.9
  612.03	  790.69	    1.69	    3.97	   720.2	     2277.8
  819.89	  994.39	    1.82	    4.28	   695.7	     2273.7
   86.72	  590.57	     n/a	     n/a	   711.7	     2267.6
  971.21	   77.73	     n/a	     n/a	   693.5	     2267.4
  690.32	  657.91	    1.55	    3.65	   721.1	     2265.9
   39.99	   87.35	    2.15	    5.04	   701.2	     2265.3
  172.10	  753.98	    1.92	    4.52	   706.8	     2262.8
  310.18	   88.71	    1.87	    4.40	   718.9	     2262.2
  280.99	  162.61	    1.80	    4.23	   725.4	     2260.9
  245.06	  974.45	    2.01	    4.73	   703.1	     2259.2
  558.46	  803.35	     n/a	     n/a	   713.7	     2258.6
   40.03	   87.11	    2.13	    5.01	   701.5	     2257.0
  714.08	   44.22	    1.80	    4.23	   710.9	     2255.0
  310.22	  901.36	     n/a	     n/a	   709.5	     2253.1
  946.37	  961.16	    1.98	    4.66	   686.0	     2249.8
  472.75	  292.01	     n/a	     n/a	   730.8	     2249.5
  331.59	  185.99	    1.77	    4.16	   721.3	     2248.9
  658.52	  532.01	    1.44	    3.40	   726.1	     2246.7
  460.40	  368.59	     n/a	     n/a	   730.3	     2245.7
  606.19	  828.33	     n/a	     n/a	   713.4	     2244.8
  854.04	  675.07	    1.35	    3.18	   711.1	     2243.5
  464.59	  224.94	    1.77	    4.16	   718.2	     2237.5
  460.64	  368.19	    2.68	    6.29	   730.5	     2234.5
  168.67	  296.96	    1.73	    4.06	   725.7	     2233.5
   66.06	  974.07	     n/a	     n/a	   696.1	     2227.6
  695.59	  208.22	     n/a	     n/a	   720.9	     2227.1
  362.62	  823.47	     n/a	     n/a	   715.9	     2223.5
  680.45	  838.43	    1.82	    4.27	   705.7	     2222.5
  160.06	  658.63	     n/a	     n/a	   711.7	     2221.9
  436.21	  321.00	    2.05	    4.82	   725.3	     2221.2
  215.36	  754.12	    2.78	    6.53	   707.8	     2221.1
  644.75	  234.18	    1.92	    4.51	   721.5	     2220.7
  344.11	  430.93	    2.85	    6.70	   758.6	     2215.8
  903.99	  494.05	    1.37	    3.23	   705.0	     2215.6
  565.05	  594.95	    1.59	    3.73	   730.0	     2214.4
  363.39	  886.74	     n/a	     n/a	   706.9	     2212.5
  472.27	  704.12	    1.72	    4.04	   723.1	     2212.0
  463.30	   58.02	    1.82	    4.27	   705.8	     2210.1
  344.11	  430.92	    2.85	    6.69	   758.6	     2208.2
  451.04	  269.08	    1.48	    3.48	   720.9	     2206.0
  720.07	  543.14	    1.55	    3.65	   722.9	     2204.1
  346.81	   24.06	    1.69	    3.97	   708.3	     2202.8
  171.48	  550.88	    2.18	    5.13	   721.1	     2198.0
  251.10	  201.56	    1.80	    4.22	   723.2	     2197.0
   87.38	  825.92	    1.81	    4.24	   697.9	     2196.2
  434.93	  446.99	    1.40	    3.30	   753.5	     2191.4
  714.76	  577.28	    1.74	    4.10	   728.1	     2190.8
  965.43	  967.79	    1.88	    4.41	   685.1	     2188.7
  309.31	  675.25	     n/a	     n/a	   727.3	     2187.9
  538.36	  371.02	    1.61	    3.79	   730.3	     2184.2
  466.05	  543.70	    1.40	    3.30	   745.7	     2183.7
  197.70	  102.96	     n/a	     n/a	   716.0	     2181.3
  893.95	  326.97	    1.68	    3.94	   707.9	     2180.4
   47.52	  194.93	     n/a	     n/a	   709.0	     2177.4
   88.05	  455.04	    1.71	    4.03	   721.3	     2173.9
  611.31	  354.85	    1.32	    3.11	   727.1	     2172.5
  515.79	  857.98	    1.91	    4.50	   710.0	     2171.6
  901.99	  527.96	    1.43	    3.37	   705.7	     2170.7
  454.08	   66.33	    1.81	    4.26	   706.5	     2170.6
  549.81	  890.26	    1.61	    3.78	   721.5	     2170.3
  308.53	   98.04	    1.94	    4.55	   715.9	     2167.4
  199.66	  833.21	    2.73	    6.42	   711.3	     2166.9
  462.98	  722.56	     n/a	     n/a	   722.4	     2162.3
   54.95	  979.36	    1.80	    4.22	   692.9	     2162.1
  135.16	  815.85	    2.06	    4.83	   703.8	     2160.1
  560.45	  488.53	     n/a	     n/a	   743.9	     2158.5
  884.17	  904.10	    1.52	    3.57	   703.0	     2156.6
  591.65	  227.83	    1.55	    3.64	   714.5	     2156.3
  925.45	  311.74	     n/a	     n/a	   707.6	     2155.2
  466.03	  543.91	    1.38	    3.25	   745.5	     2153.7
  199.78	  833.07	    2.81	    6.59	   711.4	     2150.2
  413.10	  498.63	    1.65	    3.88	   747.6	     2149.7
  300.61	  480.06	    2.18	    5.12	   752.1	     2147.9
  309.16	  675.42	     n/a	     n/a	   727.2	     2147.5
  199.75	  833.06	     n/a	     n/a	   711.5	     2143.3
  461.35	  367.78	     n/a	     n/a	   730.7	     2139.9
  923.86	  726.19	     n/a	     n/a	   705.8	     2139.5
  389.99	  484.90	    2.14	    5.04	   758.5	     2132.9
  923.87	  726.39	     n/a	     n/a	   705.8	     2132.8
   68.55	  794.44	     n/a	     n/a	   699.2	     2132.1
  846.46	  300.44	    2.34	    5.49	   711.6	     2130.7
  714.65	  577.15	    1.71	    4.02	   728.3	     2129.2
  936.02	  492.87	    1.36	    3.20	   704.8	     2128.4
  330.76	  883.19	    3.09	    7.26	   714.8	     2128.2
  884.09	  904.21	    1.48	    3.48	   702.9	     2126.6
 1006.50	  397.46	    1.63	    3.83	   698.9	     2126.1
  292.01	  632.04	    1.70	    4.00	   722.3	     2125.4
  549.59	  890.66	    1.56	    3.66	   721.9	     2124.8
  147.12	  704.02	    1.91	    4.48	   711.9	     2124.2
  936.02	  492.66	    1.39	    3.26	   704.9	     2120.1
  553.78	  613.73	    1.42	    3.33	   735.4	     2119.9
  130.17	  744.01	    2.55	    5.99	   710.4	     2112.6
  230.57	  806.47	    1.80	    4.24	   707.6	     2110.8
   12.65	  706.34	     n/a	     n/a	   701.6	     2109.1
  731.51	   69.81	     n/a	     n/a	   703.3	     2107.1
  426.15	  207.27	     n/a	     n/a	   721.7	     2104.5
  842.94	  694.03	    1.46	    3.43	   712.0	     2103.7
  735.93	  861.93	    2.21	    5.18	   702.4	     2103.2
  140.19	  952.64	    2.02	    4.74	   700.5	     2103.2
  560.04	  488.28	     n/a	     n/a	   744.8	     2102.5
  593.99	  358.55	    1.57	    3.70	   746.8	     2100.5
  508.09	  128.57	    1.58	    3.71	   715.4	     2098.5
  308.80	  675.99	     n/a	     n/a	   727.4	     2097.8
  461.02	  368.00	     n/a	     n/a	   730.7	     2097.4
  554.94	  421.35	    1.34	    3.16	   734.1	     2096.3
  330.87	  883.39	    2.99	    7.03	   714.9	     2096.1
  778.79	  308.13	    1.54	    3.62	   714.5	     2093.9
  832.95	  889.63	    1.67	    3.92	   702.9	     2091.6
  420.91	  943.65	    2.17	    5.09	   704.2	     2090.8
  296.93	  804.03	    2.04	    4.79	   707.9	     2090.1
  269.09	  790.67	    1.96	    4.62	   712.4	     2089.9
  694.36	  204.84	    2.28	    5.35	   717.2	     2089.3
  330.84	  883.53	    2.99	    7.02	   714.9	     2085.9
  947.48	  999.98	    2.00	    4.69	   681.8	     2085.8
  607.11	  551.34	     n/a	     n/a	   732.5	     2085.1
  830.57	  425.02	     n/a	     n/a	   713.9	     2083.8
  131.61	   85.55	    2.25	    5.29	   715.6	     2083.4
  344.03	  430.83	    2.32	    5.45	   759.2	     2082.9
  335.60	  844.76	    1.72	    4.04	   715.3	     2079.3
  549.59	  890.37	    1.55	    3.65	   722.2	     2078.0
  343.98	  828.69	     n/a	     n/a	   709.5	     2076.8
  522.68	 1010.24	    1.72	    4.03	   703.1	     2076.4
  337.03	   48.38	    1.76	    4.13	   711.6	     2074.5
  327.28	   92.71	     n/a	     n/a	   711.3	     2073.9
  121.81	  948.85	     n/a	     n/a	   696.4	     2066.1
  608.12	  548.50	     n/a	     n/a	   731.7	     2065.2
  970.33	   79.00	    1.71	    4.02	   693.6	     2064.7
  712.05	  402.47	    1.78	    4.19	   721.4	     2063.6
  753.72	  702.84	    1.38	    3.23	   724.3	     2061.3
  144.74	  913.95	    1.96	    4.61	   701.3	     2059.2
  625.05	  774.98	    1.46	    3.42	   716.9	     2058.9
  281.52	   27.15	    1.88	    4.43	   708.1	     2058.4
  506.89	  355.56	    1.72	    4.05	   726.4	     2056.6
  939.14	  916.13	    2.36	    5.56	   694.6	     2055.8
  308.18	  676.57	     n/a	     n/a	   727.9	     2054.7
  694.21	  204.38	     n/a	     n/a	   717.1	     2053.9
  600.27	  645.88	    2.45	    5.77	   730.0	     2052.7
  988.49	  442.95	    1.42	    3.34	   703.9	     2050.8
  628.01	  826.02	    1.43	    3.35	   716.5	     2050.4
  195.17	   82.96	    1.97	    4.63	   715.0	     2049.7
   46.87	  946.31	    2.21	    5.20	   692.8	     2049.7
  423.12	  225.61	    1.80	    4.23	   727.1	     2047.3
  344.06	  685.94	    1.84	    4.32	   725.5	     2045.2
  312.35	  649.90	    2.45	    5.77	   725.4	     2044.9
 1007.35	  597.61	     n/a	     n/a	   698.0	     2041.2
  961.91	  709.66	    1.45	    3.41	   703.2	     2040.0
  278.55	  185.47	     n/a	     n/a	   717.2	     2039.6
 1006.52	  597.99	    1.50	    3.53	   698.0	     2038.6
  340.51	  105.00	    1.77	    4.17	   714.0	     2037.5
  613.67	  841.07	    2.03	    4.77	   714.5	     2036.4
  329.83	  838.33	     n/a	     n/a	   715.4	     2036.3
   86.57	  590.00	     n/a	     n/a	   711.9	     2029.3
  208.16	  452.67	    1.90	    4.47	   732.9	     2026.8
  372.41	  343.75	    1.57	    3.68	   739.9	     2025.9
  632.49	  984.45	    1.75	    4.12	   705.2	     2025.9
  785.37	  999.90	    1.90	    4.47	   695.6	     2025.6
  769.06	  259.06	    1.31	    3.07	   711.7	     2023.4
  997.80	  834.51	     n/a	     n/a	   702.1	     2023.3
  685.30	  487.85	    1.41	    3.32	   729.3	     2023.1
  723.01	   49.55	    1.52	    3.58	   707.7	     2022.8
  832.22	  354.11	    1.32	    3.10	   715.2	     2021.4
  221.00	  363.00	    1.80	    4.23	   731.2	     2021.2
   47.11	  195.25	     n/a	     n/a	   709.1	     2012.0
   26.10	  903.30	    2.14	    5.03	   696.1	     2006.6
  331.34	  324.06	    1.73	    4.07	   731.3	     2004.6
  365.08	  635.94	    1.85	    4.35	   723.5	     2004.4
  813.59	  470.13	    2.40	    5.65	   720.5	     2004.0
  892.95	  712.90	    1.35	    3.17	   704.5	     2001.7
  480.00	  199.16	    1.42	    3.33	   714.9	     2001.0
  690.22	  483.21	    1.89	    4.44	   729.7	     2001.0
  301.72	  280.01	    1.73	    4.06	   729.4	     2000.9
  690.23	  483.21	    1.89	    4.44	   729.7	     2000.2
  296.78	  845.04	     n/a	     n/a	   709.8	     1998.2
  194.71	  907.96	    1.79	    4.21	   701.5	     1998.1
  430.04	  829.04	    1.99	    4.67	   727.5	     1997.8
  171.52	  619.95	     n/a	     n/a	   724.6	     1996.0
  314.21	  574.66	    2.21	    5.20	   728.2	     1994.7
  535.60	  658.92	    2.04	    4.80	   725.8	     1992.7
  312.22	  649.81	    2.45	    5.77	   725.9	     1992.1
  548.98	  208.58	    1.51	    3.55	   716.7	     1991.4
  314.22	  574.65	    2.21	    5.19	   728.3	     1990.1
  402.07	  684.22	    2.44	    5.73	   735.7	     1990.1
  494.37	  538.28	    1.79	    4.20	   744.6	     1988.6
  157.57	  187.94	    1.85	    4.34	   723.9	     1988.0
  178.05	  221.06	    1.71	    4.01	   741.7	     1985.7
  430.11	  829.20	    2.03	    4.77	   727.4	     1983.9
  105.31	  512.43	     n/a	     n/a	   714.2	     1982.1
  729.30	   97.85	    1.46	    3.43	   711.1	     1980.0
  194.54	  249.63	    1.74	    4.08	   722.7	     1979.8
  769.72	  206.95	    1.36	    3.20	   711.0	     1978.6
  136.98	  792.32	     n/a	     n/a	   716.1	     1978.5
  312.16	  649.81	    2.45	    5.76	   726.1	     1976.4
  262.01	  582.24	    1.97	    4.63	   736.7	     1975.3
   49.35	  353.15	    1.97	    4.64	   714.5	     1974.3
  673.27	  321.14	    1.46	    3.43	   723.6	     1972.3
  730.12	  130.34	    1.56	    3.66	   706.2	     1971.4
  889.48	  434.99	    1.48	    3.48	   713.0	     1970.1
  442.52	  173.10	    1.92	    4.52	   715.0	     1967.6
   81.94	  486.76	    2.07	    4.87	   711.8	     1966.4
  510.44	  752.55	    1.86	    4.36	   720.5	     1965.2
   63.40	  472.00	    2.25	    5.29	   718.4	     1965.0
  952.44	  196.94	    1.52	    3.57	   696.4	     1961.8
  118.77	  584.10	    1.96	    4.61	   724.2	     1961.4
  712.06	   60.59	    2.34	    5.49	   710.1	     1959.3
  173.28	  615.76	    2.19	    5.15	   722.0	     1958.1
  734.86	  557.27	    1.28	    3.00	   730.9	     1957.0
  664.83	  968.78	    1.87	    4.40	   701.8	     1956.3
  331.92	  171.87	    2.31	    5.44	   720.6	     1956.0
  421.59	  499.96	    1.62	    3.81	   749.6	     1954.9
  768.07	  667.88	    1.65	    3.87	   731.1	     1954.5
  968.89	  738.62	     n/a	     n/a	   710.1	     1953.7
  629.08	  585.19	     n/a	     n/a	   729.8	     1950.2
  705.63	  129.07	    1.45	    3.41	   708.7	     1947.6
  783.69	  842.26	    1.58	    3.71	   707.3	     1947.6
  173.29	  615.76	    2.19	    5.14	   722.2	     1945.9
  459.11	  369.35	     n/a	     n/a	   730.5	     1944.6
  551.12	  773.29	    1.67	    3.94	   716.9	     1944.4
  402.06	  684.34	    2.60	    6.11	   736.3	     1943.2
  783.25	  842.63	    1.74	    4.08	   707.3	     1942.9
  490.88	  866.76	    1.94	    4.57	   721.0	     1942.1
  427.13	  206.52	     n/a	     n/a	   721.5	     1942.0
  148.58	  583.45	    1.68	    3.96	   714.1	     1941.4
  401.97	  684.12	    2.41	    5.66	   735.7	     1936.9
  329.45	  837.94	    2.32	    5.46	   715.6	     1930.4
  158.76	  929.05	    1.98	    4.64	   697.5	     1928.9
  372.55	  839.36	    1.62	    3.81	   717.4	     1926.7
  924.22	  726.79	    2.02	    4.75	   706.3	     1926.3
  262.90	   80.63	     n/a	     n/a	   723.2	     1925.5
  102.28	  819.16	    1.97	    4.64	   704.8	     1923.5
  713.47	 1009.24	    2.66	    6.25	   696.2	     1922.6
  490.89	  866.64	    1.94	    4.56	   721.3	     1922.1
  247.79	  242.80	     n/a	     n/a	   730.7	     1919.2
  682.83	  500.36	    2.02	    4.74	   725.3	     1916.8
  463.56	  721.90	    2.22	    5.23	   722.8	     1915.7
  322.07	  177.09	    1.70	    4.00	   721.4	     1914.0
  646.76	  257.87	    1.38	    3.25	   720.8	     1913.0
  777.81	  664.66	    1.37	    3.21	   719.1	     1911.4
  312.09	  902.44	    2.88	    6.78	   710.4	     1911.3
   39.53	  788.91	     n/a	     n/a	   695.2	     1909.5
  251.40	  616.03	    1.67	    3.92	   728.3	     1909.3
  329.61	  837.95	    2.37	    5.57	   715.8	     1909.2
  539.58	  363.61	    2.36	    5.54	   730.6	     1906.6
  313.33	  589.91	    1.69	    3.97	   729.9	     1904.7
  312.09	  902.43	    2.92	    6.85	   710.5	     1903.9
  297.42	  845.30	    2.05	    4.81	   710.1	     1901.8
  421.10	  759.91	    1.99	    4.67	   719.4	     1901.6
  879.93	  123.99	    1.38	    3.24	   701.1	     1900.5
  235.95	  426.33	    2.77	    6.50	   739.0	     1900.1
   25.91	  386.56	    1.91	    4.49	   718.2	     1899.1
  290.01	  375.53	    1.78	    4.18	   740.0	     1897.7
  632.77	  366.60	    1.92	    4.51	   724.9	     1897.3
  463.73	  721.75	    2.28	    5.36	   722.5	     1897.2
   94.50	  746.10	    2.06	    4.83	   708.6	     1896.7
  198.88	  827.19	    2.28	    5.35	   712.3	     1896.2
  421.10	  759.91	    1.98	    4.66	   719.5	     1896.2
  543.01	  810.22	    1.75	    4.11	   717.7	     1894.8
  558.27	  466.76	     n/a	     n/a	   744.7	     1891.7
  584.09	  116.32	    1.51	    3.56	   718.5	     1890.8
  195.79	  916.40	     n/a	     n/a	   698.6	     1889.6
  433.32	  219.96	    1.32	    3.10	   732.4	     1889.1
  321.95	  177.18	    1.69	    3.96	   721.6	     1888.8
  224.10	  819.92	    2.14	    5.02	   705.8	     1886.7
  281.06	  422.99	    1.71	    4.02	   744.7	     1884.7
  650.01	  585.90	    1.44	    3.37	   725.6	     1883.2
   32.56	  929.41	     n/a	     n/a	   687.1	     1882.5
  290.01	  375.40	    1.77	    4.17	   740.2	     1878.9
  665.00	  208.76	    1.46	    3.43	   722.3	     1878.4
  210.09	  915.84	    1.87	    4.39	   705.9	     1877.7
  646.96	  257.90	    1.37	    3.22	   721.1	     1877.7
  713.46	 1009.46	    2.47	    5.79	   696.0	     1876.7
  619.48	  460.88	    1.41	    3.33	   739.0	     1876.3
  558.11	  487.80	     n/a	     n/a	   748.3	     1874.1
  119.50	  780.82	    2.03	    4.77	   709.3	     1870.1
  224.10	  819.92	    2.14	    5.02	   705.8	     1869.4
  490.96	  866.52	    1.96	    4.61	   721.5	     1867.3
  796.05	  429.92	    1.45	    3.41	   716.3	     1864.7
  104.35	  512.95	    2.20	    5.17	   713.5	     1862.4
  267.52	  169.51	     n/a	     n/a	   722.7	     1862.2
  795.23	  982.71	    1.80	    4.22	   695.5	     1861.1
  104.35	  512.95	    2.20	    5.17	   713.5	     1860.4
  822.27	  298.06	    1.44	    3.39	   712.2	     1860.0
  271.07	  217.84	     n/a	     n/a	   738.4	     1857.9
  833.55	  390.49	     n/a	     n/a	   719.0	     1854.3
  872.46	  274.52	    1.44	    3.38	   706.4	     1853.7
  167.13	   93.77	     n/a	     n/a	   711.5	     1852.9
  283.09	  185.41	    1.98	    4.66	   719.2	     1852.5
  299.02	  931.64	    2.62	    6.16	   705.1	     1848.5
  199.16	  827.93	     n/a	     n/a	   713.5	     1846.9
  446.30	  557.48	     n/a	     n/a	   741.2	     1846.6
  271.13	  217.78	     n/a	     n/a	   738.6	     1844.5
  974.98	  391.01	    1.30	    3.07	   704.7	     1844.5
  557.50	  487.58	    2.23	    5.24	   749.4	     1844.2
   93.43	  549.43	     n/a	     n/a	   704.9	     1842.4
  267.11	  169.89	     n/a	     n/a	   722.7	     1840.7
  337.90	  238.32	    1.76	    4.14	   724.9	     1840.7
  593.00	  895.21	    1.61	    3.78	   710.6	     1840.6
  474.98	  354.04	    1.56	    3.66	   732.0	     1837.5
   80.07	  543.52	    1.89	    4.45	   701.8	     1837.0
   80.07	  622.96	    1.98	    4.66	   708.1	     1836.6
  299.02	  931.63	    2.61	    6.14	   705.3	     1836.5
  641.07	  255.62	     n/a	     n/a	   719.2	     1835.6
  359.32	  143.27	    1.99	    4.67	   718.2	     1830.9
  876.31	  515.90	    1.29	    3.02	   707.5	     1830.1
  912.74	   35.87	    1.32	    3.11	   701.6	     1829.2
  863.24	  481.27	    1.47	    3.46	   710.0	     1828.7
  371.12	  950.03	     n/a	     n/a	   707.1	     1828.1
  282.49	  914.88	     n/a	     n/a	   705.5	     1824.0
  525.97	  306.14	    2.24	    5.26	   722.6	     1820.7
  968.82	  739.13	    1.54	    3.61	   710.7	     1818.2
  412.07	  271.03	    1.42	    3.33	   729.0	     1817.2
  525.97	  306.15	    2.24	    5.25	   722.7	     1816.6
  725.65	  368.32	    1.36	    3.20	   722.8	     1812.5
  283.29	  185.56	    2.05	    4.82	   719.7	     1812.0
  267.22	  214.19	     n/a	     n/a	   731.8	     1810.5
  416.09	  966.47	    1.83	    4.30	   707.3	     1809.9
  245.84	 1004.01	    1.89	    4.44	   700.9	     1809.2
  145.42	  350.95	    1.85	    4.35	   721.1	     1809.2
  685.98	  978.41	    1.67	    3.93	   702.9	     1808.6
  323.72	  704.67	     n/a	     n/a	   722.4	     1805.1
  695.76	  461.12	    1.65	    3.88	   728.4	     1805.0
  592.99	  894.97	    1.60	    3.77	   710.8	     1804.6
  392.37	  383.25	    1.59	    3.74	   750.2	     1804.6
  364.16	  141.07	     n/a	     n/a	   720.9	     1803.4
  832.62	  427.45	    2.37	    5.57	   716.4	     1800.6
  877.99	   81.99	    2.42	    5.69	   698.1	     1798.7
  547.89	  651.83	    2.16	    5.07	   734.6	     1797.2
  653.35	  893.10	    1.68	    3.95	   702.7	     1796.4
  130.52	  240.94	    1.67	    3.93	   723.2	     1792.1
  320.96	  803.91	    2.18	    5.11	   710.5	     1787.7
  117.40	  139.22	     n/a	     n/a	   716.3	     1787.1
  283.29	  185.80	    2.08	    4.89	   719.8	     1786.0
  462.36	  367.11	    2.21	    5.19	   730.9	     1784.0
  367.63	  129.58	    1.55	    3.63	   722.7	     1782.7
  265.73	  612.11	    2.09	    4.92	   723.3	     1781.7
  802.91	  802.19	    2.67	    6.28	   704.9	     1780.2
  795.97	  720.69	    1.47	    3.46	   709.0	     1779.7
  221.05	  915.85	     n/a	     n/a	   710.5	     1778.5
  814.96	  631.68	    2.20	    5.18	   737.0	     1778.4
  347.24	  659.18	    1.62	    3.81	   726.4	     1777.9
  487.58	  452.87	    1.47	    3.44	   744.4	     1772.1
  376.31	  263.11	    1.63	    3.82	   725.2	     1770.7
  205.02	  607.65	    2.31	    5.42	   719.0	     1769.4
  392.09	   73.73	    1.78	    4.19	   711.3	     1769.1
   16.11	  671.19	    1.64	    3.86	   707.0	     1768.3
  539.49	  363.83	    1.84	    4.33	   730.3	     1768.2
  486.00	  838.00	    2.90	    6.81	   714.5	     1767.1
  832.62	  427.45	    2.33	    5.47	   716.4	     1767.0
  416.50	  819.32	     n/a	     n/a	   718.1	     1766.6
  160.10	  660.99	    2.32	    5.46	   716.2	     1766.4
   70.37	   89.11	    2.05	    4.81	   704.9	     1766.4
   16.31	  670.98	    1.69	    3.97	   707.3	     1765.7
  559.73	   17.06	    1.52	    3.56	   707.9	     1765.4
  312.37	  902.19	    3.03	    7.13	   711.5	     1765.3
  176.00	  275.45	    1.88	    4.42	   724.8	     1765.2
  440.12	   62.02	     n/a	     n/a	   709.2	     1764.9
  278.18	  222.14	     n/a	     n/a	   732.7	     1763.1
  175.02	  685.45	    1.90	    4.45	   714.2	     1761.9
  384.99	  681.35	    2.39	    5.61	   729.2	     1761.4
  548.55	  674.39	    1.58	    3.70	   727.6	     1761.1
   16.31	  670.98	    1.69	    3.97	   707.3	     1759.6
  938.33	  868.13	    1.75	    4.10	   697.3	     1758.8
  428.19	  748.01	     n/a	     n/a	   718.1	     1758.8
  711.73	 1004.31	     n/a	     n/a	   698.7	     1757.5
  471.67	  923.08	    1.95	    4.58	   706.3	     1757.3
   79.76	  174.84	    2.05	    4.82	   709.7	     1756.1
  725.96	  368.36	    1.30	    3.05	   722.7	     1755.0
   71.10	  646.04	    2.23	    5.23	   702.6	     1754.6
  180.13	  866.47	    2.08	    4.88	   701.2	     1754.4
  428.30	  748.00	     n/a	     n/a	   718.2	     1749.3
  490.44	  403.85	    1.47	    3.46	   741.3	     1748.8
  469.01	  625.81	     n/a	     n/a	   732.7	     1747.1
  650.77	  988.69	    2.00	    4.69	   701.0	     1746.9
  100.53	   99.95	    1.88	    4.41	   713.9	     1746.6
   68.34	  379.09	    2.63	    6.19	   723.2	     1746.5
  199.01	  827.07	    2.26	    5.32	   712.6	     1745.7
  547.77	  651.92	    2.15	    5.06	   734.9	     1745.6
   62.59	  664.53	    3.04	    7.14	   702.9	     1745.0
  752.31	  974.21	     n/a	     n/a	   700.6	     1744.1
  328.58	   92.86	    2.89	    6.78	   712.1	     1743.7
  365.50	  259.53	    1.66	    3.91	   728.4	     1736.1
  124.68	  565.42	    1.91	    4.49	   714.7	     1735.9
  585.08	  535.08	    1.31	    3.07	   737.3	     1735.5
   90.06	  630.93	    2.35	    5.53	   704.3	     1735.3
  658.66	   64.97	    1.67	    3.92	   708.7	     1734.3
   46.11	  196.00	     n/a	     n/a	   710.0	     1731.8
  486.34	  837.77	    2.84	    6.66	   714.5	     1730.5
  986.56	  939.51	    1.61	    3.78	   686.3	     1729.1
  267.05	   55.57	    1.80	    4.24	   709.6	     1728.5
  271.06	  905.07	    1.79	    4.20	   711.1	     1727.5
  464.31	  693.10	    1.45	    3.41	   725.9	     1726.6
  717.53	  733.42	    1.66	    3.90	   715.7	     1726.2
  384.88	  681.14	    2.45	    5.75	   728.9	     1726.0
   46.10	  196.00	     n/a	     n/a	   710.0	     1725.7
  740.43	  978.87	    1.70	    4.00	   699.4	     1723.4
  886.98	  897.00	    1.59	    3.74	   699.3	     1722.5
  524.09	  185.03	    2.69	    6.32	   716.0	     1721.5
  628.05	  584.70	    1.46	    3.42	   729.9	     1720.6
  305.95	  187.65	    1.71	    4.02	   718.2	     1719.2
  521.61	  126.25	     n/a	     n/a	   716.8	     1717.6
  628.02	  584.91	    1.49	    3.50	   729.9	     1717.2
  354.50	  535.96	    1.65	    3.88	   732.5	     1716.1
  695.98	  209.60	    2.35	    5.52	   722.2	     1715.8
  398.66	  680.25	     n/a	     n/a	   734.0	     1715.7
  397.00	  821.99	    1.77	    4.16	   720.5	     1715.4
  439.92	   61.71	     n/a	     n/a	   709.4	     1712.3
  449.76	  684.29	     n/a	     n/a	   727.9	     1711.6
  117.24	  139.40	    2.32	    5.44	   716.5	     1711.3
  714.54	  153.92	    1.63	    3.83	   711.0	     1711.0
  659.93	  485.98	    1.45	    3.40	   727.2	     1710.6
  428.73	  102.03	    2.70	    6.34	   710.5	     1710.3
   74.79	  301.19	     n/a	     n/a	   715.1	     1709.9
  435.20	  969.36	    2.30	    5.41	   707.8	     1708.6
  411.04	  471.39	     n/a	     n/a	   748.9	     1707.4
  282.12	  914.86	    1.95	    4.59	   705.8	     1706.4
  180.53	  420.94	    1.92	    4.51	   725.1	     1704.6
  608.44	  547.96	    2.41	    5.66	   732.4	     1702.8
  918.67	  257.86	    1.32	    3.11	   702.9	     1702.4
  288.09	  865.54	    2.54	    5.96	   710.0	     1700.8
  532.60	  259.92	    1.89	    4.43	   716.9	     1700.4
  898.22	  765.00	    1.47	    3.44	   703.4	     1700.4
  562.91	  989.92	    1.80	    4.23	   705.5	     1697.8
  270.36	  502.14	    1.78	    4.18	   728.9	     1697.5
  963.26	   67.22	    1.79	    4.22	   698.2	     1695.0
  385.14	  983.07	     n/a	     n/a	   702.9	     1694.1
  160.53	   20.09	    2.30	    5.40	   700.2	     1689.9
  664.03	   87.76	    1.45	    3.40	   707.6	     1688.0
  279.01	  154.87	    2.44	    5.72	   725.7	     1687.3
  218.09	  507.02	    2.01	    4.72	   730.1	     1682.3
  613.92	  602.97	    1.49	    3.51	   729.6	     1680.9
  271.07	  905.23	    1.74	    4.09	   711.3	     1680.5
  324.09	  901.95	    2.05	    4.83	   712.4	     1678.6
  946.16	  663.74	    1.62	    3.81	   700.7	     1677.4
  410.79	  471.30	     n/a	     n/a	   749.0	     1675.4
  516.97	  832.04	    1.72	    4.04	   713.1	     1675.1
  640.68	  255.20	    1.96	    4.60	   719.2	     1671.9
  390.02	  710.96	     n/a	     n/a	   720.5	     1671.4
  353.05	  697.98	    1.67	    3.92	   731.0	     1669.1
  408.47	  534.95	    1.81	    4.25	   737.2	     1668.0
  956.16	   88.79	    1.41	    3.32	   696.0	     1667.6
  464.07	  664.91	    1.82	    4.28	   729.8	     1664.9
  279.11	  990.68	     n/a	     n/a	   702.1	     1663.2
   56.56	  112.59	     n/a	     n/a	   704.1	     1660.0
  125.01	  565.41	    2.05	    4.82	   714.9	     1658.1
  279.24	  154.87	    2.53	    5.93	   725.8	     1655.6
  226.16	  963.49	     n/a	     n/a	   705.5	     1653.4
  274.83	  586.19	    2.14	    5.02	   721.1	     1652.0
  963.74	   73.45	     n/a	     n/a	   698.5	     1651.0
  684.96	  732.82	    2.53	    5.96	   719.3	     1650.7
  767.98	  580.06	    1.62	    3.81	   717.4	     1650.3
  331.53	  704.45	    1.64	    3.85	   726.2	     1649.1
  522.11	  126.54	    1.96	    4.60	   717.2	     1647.9
  172.48	   24.32	     n/a	     n/a	   700.2	     1647.1
  213.57	  436.35	     n/a	     n/a	   732.6	     1643.7
  357.07	  615.02	    2.48	    5.83	   727.6	     1642.7
  120.88	  705.76	    1.72	    4.04	   712.2	     1642.1
  369.29	  233.81	     n/a	     n/a	   718.1	     1641.6
  522.09	  126.55	    1.95	    4.58	   717.3	     1641.6
 1006.63	  458.18	     n/a	     n/a	   701.5	     1640.9
  963.36	   67.17	    1.80	    4.23	   698.2	     1640.6
  331.62	  704.21	    1.70	    3.99	   726.1	     1640.2
  428.04	  218.22	     n/a	     n/a	   733.3	     1640.0
  139.29	  601.11	    2.62	    6.16	   725.8	     1637.1
  983.77	  947.64	    1.87	    4.39	   688.4	     1633.3
  423.09	  114.14	    1.69	    3.97	   718.4	     1631.0
  555.03	  645.02	    1.47	    3.45	   733.2	     1630.4
  607.90	  847.45	    1.76	    4.14	   712.0	     1629.8
  704.93	  973.53	    2.75	    6.45	   702.4	     1629.7
  690.35	  549.87	    1.32	    3.10	   726.3	     1628.1
  689.82	   70.46	    1.57	    3.69	   706.6	     1627.8
  560.30	  912.89	    2.25	    5.30	   708.8	     1627.6
   64.37	  963.91	     n/a	     n/a	   688.7	     1627.2
  704.93	  973.52	    2.74	    6.45	   702.5	     1625.2
 1007.19	  175.71	    2.36	    5.54	   693.2	     1624.6
  919.50	  493.02	    1.38	    3.25	   705.7	     1619.4
  614.36	  213.89	    1.55	    3.63	   730.7	     1617.8
  508.48	  469.71	     n/a	     n/a	   744.9	     1616.9
   23.00	  224.30	    2.00	    4.71	   708.2	     1616.3
  286.34	  508.03	    1.75	    4.11	   734.3	     1616.1
  421.52	  652.97	    2.20	    5.18	   730.8	     1614.0
  505.46	   65.31	    1.77	    4.15	   706.4	     1608.4
  421.30	  652.91	    2.15	    5.06	   731.1	     1606.8
  434.18	  406.52	    1.63	    3.83	   744.7	     1605.7
  681.06	  817.94	    1.67	    3.92	   707.2	     1605.3
  760.50	  778.54	    1.72	    4.04	   706.0	     1604.6
  325.03	  780.96	    1.86	    4.36	   713.8	     1604.1
  994.56	  483.01	    1.88	    4.42	   701.7	     1603.6
  295.77	  263.01	    1.65	    3.88	   727.7	     1603.5
  689.52	  374.11	    1.79	    4.20	   723.3	     1603.4
  677.10	  272.45	    1.32	    3.10	   720.8	     1602.3
  399.95	  736.91	     n/a	     n/a	   718.9	     1601.3
  942.52	  495.11	    2.08	    4.89	   705.6	     1601.2
  247.49	  243.61	    2.53	    5.95	   731.7	     1600.6
  964.35	  154.16	    1.45	    3.41	   696.7	     1600.4
   16.00	  667.00	     n/a	     n/a	   706.5	     1600.3
  942.52	  495.10	    2.08	    4.88	   705.6	     1599.6
  419.71	  406.02	    1.61	    3.79	   750.6	     1599.1
  938.94	  264.98	    1.44	    3.38	   701.4	     1598.2
  997.01	  700.02	    1.57	    3.70	   697.3	     1597.8
  994.40	  483.02	    1.80	    4.24	   701.6	     1597.4
   67.04	  103.19	     n/a	     n/a	   704.9	     1592.5
  628.42	  722.08	    1.60	    3.75	   717.0	     1592.4
  137.78	  791.09	    2.20	    5.16	   718.6	     1591.4
  749.02	  144.67	    1.43	    3.36	   710.6	     1590.7
  198.42	  933.93	    1.77	    4.16	   704.2	     1590.3
  269.00	  953.61	    1.93	    4.53	   703.4	     1587.8
  186.15	  559.71	     n/a	     n/a	   719.2	     1585.8
 1008.90	  816.17	     n/a	     n/a	   695.2	     1585.4
  970.00	  683.86	    1.30	    3.05	   701.3	     1584.7
  193.36	  464.25	    1.61	    3.78	   738.0	     1584.3
  302.98	  550.42	    1.64	    3.85	   732.2	     1584.3
 1006.97	  178.00	    1.34	    3.15	   694.4	     1581.4
   14.04	   91.90	    2.09	    4.92	   699.3	     1579.3
  435.95	  371.32	    1.80	    4.23	   734.4	     1578.7
  976.67	  726.11	    1.77	    4.15	   703.3	     1576.1
  731.79	  892.11	    1.97	    4.62	   701.6	     1575.3
  800.71	  789.00	    1.51	    3.55	   706.0	     1575.3
  302.45	  788.56	    1.89	    4.45	   708.7	     1574.0
  972.95	  110.44	     n/a	     n/a	   694.1	     1573.7
  594.32	  865.97	    1.56	    3.66	   710.8	     1572.4
   32.04	  814.96	    2.24	    5.27	   693.2	     1571.0
  400.09	  692.04	    1.68	    3.94	   731.7	     1570.8
  815.99	  615.00	    1.64	    3.86	   723.4	     1570.4
  172.98	   23.98	    2.70	    6.34	   700.2	     1567.5
  552.92	  965.27	    2.12	    4.98	   704.6	     1566.8
  752.10	  972.97	    1.69	    3.98	   700.1	     1566.2
  582.00	  154.98	     n/a	     n/a	   712.5	     1565.6
  867.02	  988.65	    1.79	    4.21	   689.2	     1565.4
  996.42	  200.51	    1.61	    3.78	   695.2	     1563.5
  310.01	  117.56	    1.76	    4.13	   727.8	     1562.5
  701.28	  970.38	     n/a	     n/a	   704.0	     1561.5
  329.96	  963.65	    1.94	    4.57	   708.1	     1558.7
  284.36	  705.62	     n/a	     n/a	   723.5	     1557.0
  476.03	  389.97	    1.58	    3.71	   735.5	     1553.3
  401.92	  523.11	    2.59	    6.07	   738.1	     1552.6
  439.49	  885.38	    1.64	    3.85	   720.6	     1551.0
  485.82	  913.05	     n/a	     n/a	   705.9	     1550.7
  555.87	   34.71	    2.19	    5.16	   706.3	     1549.3
  513.09	  335.00	     n/a	     n/a	   727.3	     1547.4
  800.98	  665.99	    1.39	    3.27	   713.3	     1545.6
  476.17	  194.53	     n/a	     n/a	   713.3	     1545.4
  876.51	  544.59	    1.57	    3.69	   708.6	     1541.9
   15.52	  890.45	     n/a	     n/a	   691.4	     1541.0
  876.74	  368.02	    2.76	    6.50	   707.7	     1540.5
  349.70	  201.43	     n/a	     n/a	   717.9	     1538.5
  284.32	  705.76	     n/a	     n/a	   723.4	     1538.2
  820.04	  474.01	    1.43	    3.36	   716.8	     1538.1
  274.99	  586.04	    2.06	    4.83	   721.4	     1537.0
  221.25	  419.21	     n/a	     n/a	   737.8	     1537.0
  535.41	  890.44	     n/a	     n/a	   719.0	     1533.3
   15.52	  890.45	     n/a	     n/a	   691.4	     1530.4
  410.83	  471.03	    1.94	    4.56	   749.2	     1530.0
  680.79	  714.24	    1.57	    3.70	   717.3	     1529.5
  141.54	   90.15	    2.11	    4.96	   715.9	     1528.8
  365.98	  688.40	     n/a	     n/a	   729.8	     1528.6
  657.93	  308.70	    1.70	    3.99	   722.4	     1528.1
  250.03	 1010.24	    1.91	    4.50	   695.0	     1527.6
  814.95	  947.89	    2.91	    6.83	   702.3	     1526.9
  133.00	  509.51	     n/a	     n/a	   719.3	     1526.2
  249.94	  979.60	    2.46	    5.77	   699.3	     1524.8
  553.28	  342.58	     n/a	     n/a	   726.3	     1522.2
  168.77	  570.89	    2.03	    4.76	   715.4	     1521.2
  582.76	  154.22	     n/a	     n/a	   712.4	     1521.0
  530.93	  386.45	    1.68	    3.94	   732.9	     1520.4
  696.63	  762.69	     n/a	     n/a	   717.0	     1520.0
  472.01	   89.98	    1.48	    3.49	   712.7	     1520.0
  386.12	   24.58	    1.64	    3.86	   708.7	     1519.1
  202.37	  368.10	    1.70	    4.00	   724.5	     1519.1
   39.73	  918.01	     n/a	     n/a	   689.2	     1518.4
  540.95	  781.25	    1.72	    4.03	   719.4	     1518.0
  774.93	  972.89	    1.87	    4.39	   698.3	     1518.0
  775.98	  146.91	    1.29	    3.03	   708.6	     1517.0
  246.56	  207.91	    2.42	    5.69	   724.9	     1516.5
  284.55	  705.57	     n/a	     n/a	   723.8	     1516.1
  411.87	  597.70	     n/a	     n/a	   727.8	     1515.6
  270.26	  700.75	    1.89	    4.45	   714.0	     1515.4
  401.22	  428.80	    2.18	    5.12	   751.1	     1515.1
  335.98	  776.63	    1.62	    3.80	   715.4	     1514.7
  416.90	  908.44	    2.07	    4.87	   709.8	     1513.8
  283.50	   77.58	    1.80	    4.22	   712.5	     1513.6
  366.07	  889.00	    2.52	    5.93	   709.0	     1512.4
  250.28	   78.28	    2.51	    5.90	   714.1	     1511.5
  246.74	  207.89	    2.47	    5.81	   725.0	     1511.4
  159.47	   17.94	     n/a	     n/a	   699.1	     1510.0
  236.84	  360.29	    1.73	    4.07	   734.8	     1508.2
  135.31	  558.76	    1.84	    4.32	   714.9	     1505.2
 1009.81	  812.84	     n/a	     n/a	   695.8	     1505.2
  696.27	  210.08	    2.56	    6.02	   722.9	     1504.2
  344.96	  355.31	     n/a	     n/a	   745.0	     1503.7
  124.14	  831.46	    2.13	    5.01	   704.8	     1502.3
  958.25	  930.40	     n/a	     n/a	   691.6	     1499.4
  895.09	  251.12	    1.19	    2.80	   703.6	     1498.3
  475.34	  888.09	     n/a	     n/a	   704.9	     1498.1
  529.89	  559.81	    1.60	    3.77	   739.0	     1498.1
  430.08	 1003.92	    1.97	    4.62	   702.6	     1498.0
  147.06	   30.81	     n/a	     n/a	   706.5	     1497.9
  682.99	  930.24	    1.82	    4.28	   700.8	     1493.5
  249.94	  979.43	    2.53	    5.93	   699.6	     1491.9
   38.15	  136.13	    1.99	    4.68	   702.3	     1491.4
  205.39	  559.91	    1.81	    4.25	   724.4	     1490.9
  218.72	  201.44	     n/a	     n/a	   723.0	     1490.8
  993.67	  263.90	    1.63	    3.84	   695.6	     1490.7
  972.47	  109.51	    2.31	    5.42	   694.4	     1490.6
  727.48	  448.09	    1.33	    3.13	   728.3	     1490.1
  886.77	  807.05	    1.73	    4.07	   700.4	     1488.9
  625.07	  839.03	    1.36	    3.19	   716.0	     1488.7
   94.86	  787.40	    1.84	    4.33	   711.7	     1488.2
  535.32	  736.00	    1.56	    3.67	   716.7	     1488.0
  770.69	  389.71	    1.55	    3.63	   719.1	     1487.5
  996.98	   68.92	    1.62	    3.81	   690.2	     1485.8
  117.57	  728.42	    1.87	    4.40	   709.0	     1485.4
  778.94	  808.66	    1.63	    3.84	   707.2	     1484.2
  700.39	  795.38	     n/a	     n/a	   709.9	     1484.1
  546.98	  328.70	    1.86	    4.38	   725.9	     1483.5
 1009.19	  813.80	     n/a	     n/a	   696.2	     1482.7
  297.57	  578.87	    2.05	    4.83	   721.9	     1482.6
  250.00	 1010.03	    1.87	    4.40	   695.5	     1482.4
  410.73	  470.88	    1.53	    3.61	   749.3	     1479.9
  292.12	  170.09	    2.04	    4.80	   716.8	     1479.9
   73.10	  833.77	    2.51	    5.89	   694.1	     1479.3
  969.25	  958.18	     n/a	     n/a	   686.4	     1479.0
  482.56	  178.00	    1.56	    3.66	   715.7	     1479.0
  414.58	  595.05	    1.99	    4.68	   728.4	     1476.6
  495.03	  236.50	    1.58	    3.71	   719.1	     1476.5
  124.12	  322.08	    1.96	    4.61	   722.8	     1476.0
  437.28	   85.08	    2.35	    5.53	   706.4	     1475.6
  647.50	   57.54	    1.86	    4.37	   709.6	     1475.5
  466.00	  585.93	    1.48	    3.47	   739.7	     1475.5
  940.79	  273.58	    1.41	    3.31	   700.2	     1475.3
  711.97	  784.51	    1.76	    4.13	   710.7	     1473.3
  537.79	  200.75	    1.68	    3.95	   715.5	     1472.3
  469.09	  480.92	    1.57	    3.70	   750.9	     1471.6
  873.43	  958.23	     n/a	     n/a	   693.2	     1471.5
  384.09	  305.22	    1.84	    4.32	   722.8	     1471.0
  842.00	  318.00	     n/a	     n/a	   710.8	     1469.7
  309.15	   25.38	    1.83	    4.30	   704.5	     1467.9
  915.04	  410.49	    1.21	    2.83	   708.0	     1467.4
  282.59	  438.49	    1.71	    4.03	   746.1	     1467.3
  437.09	   85.05	     n/a	     n/a	   706.7	     1467.3
  660.76	   13.79	     n/a	     n/a	   703.7	     1462.1
  736.08	  682.67	    1.48	    3.48	   718.6	     1460.1
  801.91	  806.07	    2.04	    4.79	   707.1	     1459.1
  976.66	  670.97	    1.75	    4.11	   699.6	     1456.6
  741.09	  533.10	    1.65	    3.88	   721.6	     1456.4
   81.92	  958.28	     n/a	     n/a	   688.2	     1452.7
  616.72	  274.88	    1.25	    2.93	   724.7	     1452.3
  159.28	   17.67	     n/a	     n/a	   699.1	     1450.8
  825.74	  719.52	     n/a	     n/a	   710.3	     1450.7
  168.56	  901.51	    2.36	    5.54	   698.3	     1450.5
 1009.09	  813.98	     n/a	     n/a	   696.5	     1450.2
  918.02	  229.33	    1.42	    3.33	   699.5	     1449.5
  788.00	  448.08	    1.36	    3.19	   721.0	     1447.5
  767.48	  759.00	     n/a	     n/a	   711.2	     1446.6
 1009.09	  813.99	     n/a	     n/a	   696.6	     1445.5
  538.04	  816.95	    1.54	    3.62	   719.6	     1443.7
  549.71	  203.96	     n/a	     n/a	   717.6	     1443.5
  609.53	  813.00	    2.21	    5.20	   713.2	     1440.1
   12.51	  559.00	    2.41	    5.66	   700.7	     1439.9
  524.97	  978.49	    2.01	    4.73	   703.4	     1438.4
  265.45	  526.81	    1.80	    4.24	   730.0	     1437.9
  327.30	  877.20	    1.75	    4.12	   716.7	     1437.3
  202.38	  295.99	    1.97	    4.63	   726.8	     1437.3
  985.12	  559.21	    1.71	    4.02	   701.2	     1435.4
   29.95	  103.88	     n/a	     n/a	   703.8	     1433.9
   15.02	  577.42	    1.95	    4.58	   706.8	     1433.5
  985.02	  559.13	    1.70	    3.99	   701.2	     1432.4
  864.44	  812.44	     n/a	     n/a	   702.9	     1431.7
  390.57	  682.88	    2.51	    5.90	   732.8	     1430.7
  265.56	  526.86	    1.88	    4.43	   729.9	     1430.0
  344.05	  501.97	    1.56	    3.67	   748.7	     1428.5
  747.32	  796.41	     n/a	     n/a	   706.5	     1427.8
   15.02	  577.42	    1.94	    4.57	   706.9	     1427.6
  786.97	  440.06	    1.29	    3.04	   721.8	     1425.7
  492.91	  199.67	    1.61	    3.78	   713.7	     1425.3
  168.19	   90.27	    2.96	    6.95	   712.7	     1421.4
  895.28	  592.69	     n/a	     n/a	   709.2	     1420.2
  972.21	  109.43	    2.22	    5.23	   694.6	     1420.0
  467.76	  993.89	    2.05	    4.81	   703.7	     1419.3
  939.93	  903.89	    2.42	    5.68	   693.3	     1418.7
   45.11	  163.02	    2.26	    5.30	   705.6	     1417.7
  331.26	  489.37	    1.91	    4.48	   742.4	     1415.0
   76.01	  924.09	    2.70	    6.35	   691.1	     1415.0
  540.53	  599.99	    2.19	    5.15	   732.6	     1412.6
  714.01	  776.33	    1.44	    3.39	   714.0	     1411.3
  873.57	  958.47	    2.12	    4.97	   693.3	     1410.9
   64.10	  441.29	    1.93	    4.53	   717.9	     1409.5
  603.06	  493.56	    1.67	    3.92	   733.4	     1409.1
  834.99	  535.03	    1.44	    3.39	   713.4	     1408.6
  873.53	  958.48	    2.13	    5.00	   693.2	     1406.8
 1008.86	  121.20	     n/a	     n/a	   690.6	     1406.5
  107.51	  878.88	    1.80	    4.24	   699.1	     1406.4
  439.56	  564.42	    1.84	    4.32	   733.5	     1404.4
  492.82	  199.83	    1.63	    3.82	   713.7	     1404.2
  266.26	  212.83	    2.63	    6.18	   730.8	     1402.8
  370.57	  726.99	     n/a	     n/a	   719.2	     1402.7
  674.93	  769.48	    1.56	    3.67	   717.7	     1401.3
  548.05	  872.94	    2.90	    6.81	   710.4	     1401.0
  606.45	  727.12	    2.44	    5.74	   725.7	     1400.3
  553.59	  342.48	     n/a	     n/a	   726.5	     1399.4
  952.80	  149.18	     n/a	     n/a	   697.8	     1399.3
  629.98	   29.02	    1.75	    4.11	   705.4	     1399.0
  662.95	  550.09	    1.37	    3.23	   727.4	     1398.4
  686.84	  515.16	    1.76	    4.13	   725.4	     1398.0
  800.26	  950.32	     n/a	     n/a	   697.5	     1396.0
 1009.51	  459.85	     n/a	     n/a	   699.7	     1394.5
  955.61	  691.04	    1.61	    3.78	   699.6	     1393.9
  226.09	  757.53	    1.74	    4.08	   708.6	     1393.4
  639.25	  535.07	    1.95	    4.58	   729.8	     1393.3
  655.37	   13.07	    1.60	    3.76	   707.5	     1393.2
  278.98	  994.27	    2.28	    5.36	   704.0	     1388.3
  153.06	  880.64	    2.21	    5.19	   697.2	     1385.6
  187.74	   75.26	    2.75	    6.47	   714.2	     1384.9
  634.01	  641.47	    1.42	    3.34	   726.4	     1384.7
  735.02	  619.48	    1.47	    3.45	   723.9	     1384.6
   70.85	  102.65	    1.78	    4.19	   706.9	     1384.4
  988.71	  191.78	    1.48	    3.48	   695.3	     1383.2
  814.54	  379.04	    1.46	    3.42	   715.4	     1383.0
  234.03	  412.13	    1.84	    4.32	   736.5	     1382.8
  173.72	   23.72	     n/a	     n/a	   701.0	     1381.5
  296.13	  489.98	    2.07	    4.87	   742.3	     1379.9
  829.69	  324.00	    1.37	    3.22	   713.1	     1377.7
  608.04	  389.96	    1.28	    3.00	   727.5	     1377.3
  633.94	  588.00	    1.89	    4.44	   727.0	     1376.8
  629.94	   28.81	    1.66	    3.91	   705.4	     1376.6
  969.26	  419.05	    1.29	    3.03	   702.4	     1374.6
  705.92	  906.83	    1.54	    3.61	   701.5	     1374.4
  876.59	  951.75	    1.67	    3.92	   695.7	     1371.3
  849.52	  570.95	    1.32	    3.09	   712.8	     1370.9
  875.27	  353.24	    1.41	    3.32	   708.9	     1369.9
  662.33	  645.80	     n/a	     n/a	   719.4	     1368.7
  518.03	  646.48	    1.45	    3.42	   729.2	     1368.2
  553.50	  943.12	    1.96	    4.61	   705.6	     1367.5
  716.26	  864.63	    1.60	    3.75	   703.4	     1367.2
  369.00	  234.51	    2.47	    5.80	   718.2	     1366.4
  831.64	  755.30	    2.65	    6.23	   708.2	     1364.9
  204.98	  595.21	     n/a	     n/a	   723.3	     1364.2
  908.99	  983.00	    1.75	    4.11	   685.8	     1363.8
  720.51	  886.41	    1.69	    3.97	   706.4	     1363.3
  777.22	  894.75	    1.60	    3.76	   704.5	     1362.6
  527.31	  763.68	    2.41	    5.67	   718.4	     1361.4
  662.84	  119.83	    1.66	    3.90	   707.3	     1359.6
  973.03	  793.87	    2.17	    5.09	   702.0	     1356.6
  213.33	  567.94	     n/a	     n/a	   726.2	     1354.5
  525.68	  574.93	    1.59	    3.73	   739.3	     1354.3
  973.03	  793.87	    2.16	    5.09	   702.0	     1353.2
  477.05	  779.30	    1.61	    3.78	   720.1	     1352.8
  408.82	  208.32	    2.00	    4.70	   715.6	     1352.7
  152.37	  324.99	     n/a	     n/a	   721.5	     1350.6
  580.44	  912.14	     n/a	     n/a	   710.8	     1347.5
  281.77	  569.93	    1.75	    4.10	   723.5	     1347.1
  768.07	  141.06	     n/a	     n/a	   711.7	     1345.6
  764.06	  960.00	    1.69	    3.96	   699.1	     1345.0
  737.83	  153.49	     n/a	     n/a	   707.6	     1344.4
  286.33	  473.78	    1.94	    4.57	   742.2	     1343.8
  548.72	  343.98	     n/a	     n/a	   726.1	     1343.2
  622.30	   67.15	    1.71	    4.02	   708.3	     1342.3
  993.28	  241.01	    1.46	    3.42	   692.0	     1342.0
   98.93	  360.94	    1.90	    4.48	   718.4	     1340.7
  728.26	  335.98	     n/a	     n/a	   717.9	     1339.6
  651.99	  612.60	    1.61	    3.78	   730.4	     1338.8
  698.07	  289.80	     n/a	     n/a	   717.2	     1337.9
  373.94	  801.92	    1.93	    4.53	   717.8	     1337.2
  214.08	  864.90	    1.80	    4.23	   711.7	     1334.3
  432.13	  656.92	     n/a	     n/a	   724.4	     1334.0
  249.55	  693.11	    2.82	    6.64	   719.7	     1333.9
  373.95	  801.93	    1.93	    4.53	   717.9	     1331.9
  819.01	  816.87	    2.68	    6.30	   703.2	     1331.5
  206.97	  180.81	     n/a	     n/a	   727.2	     1331.3
  691.19	  341.70	     n/a	     n/a	   728.4	     1330.7
  347.60	  652.58	     n/a	     n/a	   721.2	     1325.9
  327.54	  877.00	    1.81	    4.25	   717.6	     1325.8
  905.53	  317.54	    1.56	    3.67	   710.3	     1324.3
  681.69	  743.91	    1.46	    3.44	   715.0	     1323.0
  468.28	  634.21	    2.09	    4.90	   727.7	     1321.6
  558.36	  125.15	    2.33	    5.47	   716.0	     1321.2
  308.08	  489.00	    1.53	    3.59	   742.3	     1318.7
   44.50	  120.96	    2.42	    5.69	   703.0	     1313.0
  179.15	  154.38	     n/a	     n/a	   721.8	     1312.3
  503.98	  807.80	    2.37	    5.58	   718.9	     1311.7
  491.89	  784.09	    1.79	    4.20	   721.7	     1311.1
  583.73	  153.20	    2.16	    5.08	   712.3	     1310.9
  695.86	  472.26	     n/a	     n/a	   730.8	     1310.9
  893.54	  909.92	    1.72	    4.05	   695.9	     1310.4
  313.30	  281.99	    1.69	    3.97	   731.4	     1310.0
  910.07	  885.97	    1.47	    3.45	   696.6	     1309.0
   74.38	  391.88	    1.78	    4.18	   719.1	     1308.7
  470.69	  410.10	    1.40	    3.28	   741.7	     1308.6
  477.98	  956.49	    1.93	    4.53	   706.4	     1308.0
  130.53	  140.00	     n/a	     n/a	   718.7	     1306.9
  818.99	  816.64	    2.73	    6.42	   703.4	     1306.3
  583.00	  776.44	    2.73	    6.40	   717.0	     1305.5
  822.65	  217.83	    1.75	    4.12	   710.1	     1304.6
  106.87	   87.07	     n/a	     n/a	   710.8	     1304.3
  605.74	  220.39	    2.25	    5.28	   722.4	     1304.0
  818.91	   17.39	    1.62	    3.80	   696.9	     1303.3
  497.07	  266.35	    1.57	    3.69	   723.0	     1302.3
  628.03	  664.92	    1.94	    4.57	   720.9	     1302.2
  216.52	  735.48	    1.77	    4.16	   711.1	     1300.2
  225.89	  538.63	    2.02	    4.74	   723.1	     1298.4
  697.03	  869.96	    2.48	    5.84	   704.8	     1298.0
  559.93	  542.67	    1.31	    3.08	   739.5	     1297.8
  188.39	  398.29	    1.81	    4.25	   729.4	     1296.5
  682.49	  308.87	    1.64	    3.85	   719.9	     1295.8
  629.17	  575.90	     n/a	     n/a	   728.2	     1293.2
  548.21	  343.84	     n/a	     n/a	   726.6	     1293.0
  851.64	  800.14	     n/a	     n/a	   702.5	     1292.3
  206.50	  181.42	     n/a	     n/a	   726.9	     1291.5
  468.55	  634.28	    2.08	    4.89	   728.1	     1291.4
  958.33	  924.95	    1.70	    4.00	   692.7	     1289.8
  671.25	  750.53	    1.88	    4.42	   714.2	     1288.6
  797.02	  570.03	    1.38	    3.24	   714.0	     1288.3
  582.86	  727.92	    1.90	    4.46	   722.1	     1286.4
  580.55	  156.46	     n/a	     n/a	   712.4	     1286.3
  110.48	   37.00	     n/a	     n/a	   703.1	     1286.0
  865.49	  458.97	    1.67	    3.91	   712.3	     1285.9
  919.86	  676.48	    1.30	    3.06	   699.9	     1285.5
  959.03	 1005.02	    1.70	    3.98	   681.5	     1284.2
  979.95	  620.56	     n/a	     n/a	   696.9	     1284.2
  850.09	  527.13	    1.72	    4.03	   711.7	     1283.8
   48.22	  748.49	     n/a	     n/a	   695.7	     1283.7
  275.62	  602.07	    1.53	    3.59	   725.3	     1283.6
  111.58	  500.95	    1.87	    4.41	   718.9	     1281.2
   44.64	  120.97	    2.37	    5.58	   703.0	     1280.3
   45.67	   14.99	     n/a	     n/a	   703.1	     1279.6
   87.20	  983.86	     n/a	     n/a	   687.7	     1279.1
  889.98	  793.95	    2.15	    5.05	   703.6	     1278.3
  215.08	  567.65	    2.84	    6.67	   725.2	     1277.8
  814.95	  948.13	    2.37	    5.58	   703.6	     1277.3
   97.03	  125.61	     n/a	     n/a	   718.1	     1276.9
  737.72	  153.65	     n/a	     n/a	   707.7	     1276.0
  799.11	   53.35	    1.51	    3.54	   700.9	     1274.0
  460.89	  963.08	    2.14	    5.02	   705.6	     1273.3
  122.73	  154.96	    2.27	    5.33	   719.2	     1272.9
  818.90	   17.54	    1.63	    3.84	   697.1	     1271.9
  863.44	  812.49	     n/a	     n/a	   703.4	     1270.2
  473.98	  290.39	    1.88	    4.41	   732.6	     1269.9
  506.02	  469.94	     n/a	     n/a	   745.1	     1269.8
  122.73	  154.96	    2.27	    5.33	   719.3	     1268.5
  378.00	  620.00	     n/a	     n/a	   728.7	     1268.2
  821.41	  697.44	     n/a	     n/a	   713.8	     1267.2
  863.48	  812.36	     n/a	     n/a	   703.4	     1267.0
  760.04	  469.31	    1.13	    2.66	   728.5	     1267.0
  336.57	  884.39	     n/a	     n/a	   716.0	     1266.1
  352.22	  555.49	     n/a	     n/a	   744.6	     1265.3
  821.41	  697.44	     n/a	     n/a	   713.9	     1265.0
  502.30	  391.57	    1.60	    3.76	   740.2	     1264.3
  671.33	  522.58	     n/a	     n/a	   728.7	     1263.4
  581.09	  912.73	    2.80	    6.58	   709.5	     1261.4
  254.10	  588.04	    2.72	    6.38	   724.9	     1258.6
  559.97	  977.24	    2.06	    4.83	   703.3	     1257.4
  360.00	  667.30	    1.68	    3.94	   727.8	     1256.7
  826.02	  720.07	    2.85	    6.70	   710.3	     1256.6
  730.08	  259.02	    1.30	    3.06	   714.3	     1255.6
  898.74	  759.34	    1.64	    3.86	   704.9	     1255.6
  571.78	  417.93	    1.63	    3.84	   732.5	     1254.7
  248.91	  105.93	    1.80	    4.23	   711.1	     1254.5
   89.04	  520.72	    2.06	    4.84	   707.6	     1252.9
  168.15	   90.00	    2.60	    6.12	   712.8	     1252.6
  499.95	  408.15	    2.50	    5.88	   737.9	     1252.4
  152.96	  655.99	     n/a	     n/a	   719.0	     1252.3
  197.06	  180.00	    1.85	    4.34	   727.9	     1251.3
  347.72	  152.89	    1.53	    3.59	   714.4	     1249.8
  793.03	  285.32	    1.44	    3.40	   713.1	     1249.3
  444.53	  868.94	    2.01	    4.72	   713.8	     1248.3
  614.64	  698.94	     n/a	     n/a	   740.6	     1247.5
   80.54	   86.02	    1.69	    3.98	   708.6	     1247.4
   49.96	  746.61	     n/a	     n/a	   695.7	     1247.0
  717.10	  935.35	    1.61	    3.79	   698.2	     1246.0
  692.01	  631.01	    2.38	    5.59	   725.0	     1245.8
  444.51	  869.34	    1.79	    4.20	   713.6	     1244.7
   12.86	  407.42	     n/a	     n/a	   712.9	     1242.4
  867.96	  792.48	    1.70	    4.00	   704.7	     1241.9
  590.07	  778.21	    1.43	    3.37	   727.8	     1239.1
  950.31	  247.01	    1.37	    3.21	   699.4	     1236.4
  623.26	  526.65	    1.80	    4.22	   733.0	     1236.3
  111.58	  906.00	    2.07	    4.86	   694.6	     1235.3
  542.02	  693.51	    1.87	    4.41	   723.5	     1234.8
  542.76	  983.17	    2.03	    4.78	   700.8	     1231.9
  750.77	  111.23	     n/a	     n/a	   709.6	     1231.2
  326.60	  475.52	    2.25	    5.30	   748.1	     1230.3
  137.84	 1005.67	    1.98	    4.66	   698.6	     1230.3
  526.40	 1002.74	    1.79	    4.20	   704.1	     1227.6
  358.04	  899.52	    1.94	    4.56	   714.8	     1227.0
  712.05	  657.50	    1.40	    3.30	   721.4	     1225.3
  340.46	  405.43	    2.61	    6.13	   746.4	     1224.3
  347.06	  358.29	    2.48	    5.83	   746.5	     1224.3
  475.68	  193.92	     n/a	     n/a	   714.6	     1220.9
  926.66	  655.99	    1.32	    3.11	   702.1	     1220.4
  281.76	  631.43	    2.06	    4.84	   721.0	     1220.4
  734.41	  817.20	    2.19	    5.14	   705.8	     1220.3
  357.65	  273.01	    2.13	    5.00	   726.6	     1218.8
  449.56	  944.45	     n/a	     n/a	   705.7	     1216.5
  547.53	  156.01	     n/a	     n/a	   715.5	     1216.3
  922.52	   88.51	    2.59	    6.10	   693.1	     1216.1
  752.96	  649.92	     n/a	     n/a	   718.0	     1214.9
  834.64	  628.03	    1.52	    3.58	   713.7	     1214.3
  791.79	  227.34	    1.35	    3.18	   711.1	     1212.6
  605.54	  220.15	    2.17	    5.10	   722.6	     1212.2
  910.03	  538.99	    1.50	    3.52	   708.3	     1211.6
  632.00	  335.81	    2.03	    4.76	   723.9	     1210.1
  630.50	  573.11	     n/a	     n/a	   729.0	     1209.8
  682.69	  354.18	    1.64	    3.85	   718.3	     1209.3
  414.08	  982.45	    2.21	    5.18	   711.1	     1208.7
  282.15	  924.27	    1.84	    4.32	   708.3	     1207.2
  398.04	  679.93	    2.34	    5.49	   735.0	     1206.0
  758.98	  709.63	    1.90	    4.46	   723.9	     1205.0
  652.95	 1010.46	    1.78	    4.17	   700.2	     1203.9
  642.76	  918.14	    2.21	    5.21	   703.6	     1203.0
  843.00	  511.99	    1.37	    3.22	   712.2	     1202.4
  159.81	  193.60	    1.88	    4.41	   726.0	     1201.6
  383.79	  992.16	    1.97	    4.63	   700.2	     1201.0
  111.11	  566.09	    2.22	    5.23	   712.7	     1199.9
  475.85	  193.65	    2.58	    6.07	   714.6	     1198.9
  978.42	  791.15	    2.82	    6.63	   700.4	     1198.3
   85.78	  503.94	     n/a	     n/a	   712.8	     1198.0
  824.15	  329.09	    1.31	    3.08	   710.3	     1197.4
   75.97	  303.96	    2.76	    6.48	   716.2	     1197.1
  565.11	  266.09	    1.21	    2.85	   726.1	     1195.9
 1003.68	  277.22	    1.50	    3.53	   698.9	     1195.6
  129.00	   98.00	     n/a	     n/a	   711.5	     1193.7
   15.51	  937.78	     n/a	     n/a	   687.3	     1192.8
  150.91	  971.92	    2.17	    5.09	   693.3	     1192.8
  236.05	   34.01	    1.98	    4.66	   706.0	     1192.5
  168.33	  983.60	    2.38	    5.60	   694.4	     1192.4
  415.03	 1003.07	    2.02	    4.76	   701.3	     1192.3
  711.18	 1003.33	    2.05	    4.82	   700.4	     1191.3
   72.36	  900.06	     n/a	     n/a	   693.2	     1191.3
  815.49	  310.99	    1.28	    3.01	   709.9	     1191.3
  555.15	  983.99	     n/a	     n/a	   705.3	     1191.1
  419.44	  274.94	    1.34	    3.14	   723.5	     1190.7
  636.20	  530.60	     n/a	     n/a	   731.0	     1188.4
  583.07	  581.33	    2.39	    5.62	   732.7	     1186.4
  853.47	  783.83	    1.70	    4.00	   704.3	     1186.0
  934.05	   80.90	     n/a	     n/a	   696.3	     1185.0
  715.54	  831.46	     n/a	     n/a	   707.8	     1184.7
  853.47	  783.83	    1.70	    4.00	   704.4	     1183.0
   68.12	  404.06	    2.37	    5.57	   715.9	     1182.8
  511.00	  581.33	    2.31	    5.43	   736.0	     1180.8
  510.98	  469.04	    3.07	    7.20	   744.0	     1180.5
   16.54	  371.79	     n/a	     n/a	   717.5	     1180.0
   75.98	  303.97	    2.76	    6.49	   716.2	     1179.8
  604.34	  342.13	    1.97	    4.63	   725.4	     1178.5
  467.00	  465.00	     n/a	     n/a	   748.9	     1177.7
  581.33	  615.80	    1.75	    4.11	   728.3	     1177.4
  732.11	  317.08	    1.44	    3.38	   715.6	     1176.4
  347.21	  358.20	    2.49	    5.84	   746.8	     1176.3
   73.60	  874.51	    1.98	    4.65	   697.7	     1173.9
  658.37	  839.86	    1.83	    4.30	   706.2	     1170.0
  588.68	  263.93	    1.61	    3.78	   723.1	     1169.9
  306.34	  900.25	     n/a	     n/a	   714.5	     1169.9
   98.48	  942.42	     n/a	     n/a	   694.3	     1169.9
  883.46	  278.85	    1.47	    3.45	   706.4	     1169.7
   20.67	   78.23	     n/a	     n/a	   699.6	     1169.7
  471.58	  323.33	    1.78	    4.18	   724.2	     1168.8
  676.27	  113.14	    1.66	    3.89	   707.0	     1168.5
  685.29	  324.94	    1.59	    3.74	   719.4	     1166.7
  101.46	  697.00	     n/a	     n/a	   711.6	     1166.7
  662.41	  406.95	     n/a	     n/a	   727.9	     1166.6
  133.82	  572.78	    1.84	    4.32	   714.3	     1165.6
  261.00	  857.50	    2.06	    4.85	   709.4	     1164.8
  507.30	  598.97	     n/a	     n/a	   740.5	     1164.2
  602.66	  661.89	    1.65	    3.89	   723.8	     1162.6
  652.58	  796.00	    2.54	    5.98	   708.5	     1160.7
  842.08	  202.01	    1.53	    3.59	   705.3	     1158.8
  331.76	   64.05	    1.47	    3.46	   713.5	     1158.2
  301.73	  586.18	     n/a	     n/a	   726.3	     1157.8
  815.05	  763.25	     n/a	     n/a	   707.0	     1157.3
  695.90	  916.62	    1.75	    4.11	   702.2	     1155.9
  505.04	  865.87	    1.84	    4.33	   716.4	     1155.5
  934.73	  235.64	     n/a	     n/a	   698.8	     1155.3
   17.55	  372.01	    2.30	    5.40	   717.3	     1154.8
  122.08	  773.23	    2.69	    6.32	   706.0	     1153.6
  396.57	   46.86	    1.90	    4.47	   714.6	     1152.9
  699.24	  288.18	     n/a	     n/a	   717.6	     1151.7
   17.75	  372.01	    2.33	    5.48	   717.3	     1150.2
  978.88	  790.98	    1.94	    4.56	   700.4	     1149.1
   95.28	  214.89	     n/a	     n/a	   719.0	     1146.8
   17.75	  372.01	    2.33	    5.47	   717.3	     1146.6
  331.52	  385.00	    2.05	    4.81	   744.8	     1145.9
  392.92	  328.14	     n/a	     n/a	   724.0	     1144.3
  300.98	  653.97	    1.75	    4.12	   726.2	     1144.2
  631.10	   14.70	    1.69	    3.96	   701.0	     1141.3
  243.79	  605.81	    1.62	    3.82	   736.9	     1139.7
  393.00	  418.50	    1.54	    3.62	   753.3	     1138.5
  372.53	  942.50	    1.74	    4.09	   712.4	     1138.0
  773.18	  482.32	    1.33	    3.12	   720.7	     1137.6
  136.00	  527.51	     n/a	     n/a	   713.4	     1136.6
  709.39	   28.55	    2.22	    5.22	   706.0	     1135.6
   16.65	  372.22	     n/a	     n/a	   717.6	     1135.6
  448.06	  360.54	    1.56	    3.67	   725.2	     1133.4
  207.82	  269.37	    1.89	    4.44	   728.1	     1133.3
  418.60	  384.58	    1.48	    3.49	   742.3	     1132.7
  895.05	   75.06	    1.64	    3.85	   697.8	     1132.2
  776.17	  216.81	    1.53	    3.60	   708.4	     1131.2
  766.99	  809.30	    1.67	    3.92	   707.8	     1129.3
  203.23	  822.15	     n/a	     n/a	   708.3	     1128.8
   73.93	  298.60	     n/a	     n/a	   716.0	     1128.5
  396.69	   46.79	    1.79	    4.21	   714.5	     1127.0
  943.07	  383.00	     n/a	     n/a	   710.7	     1126.8
  978.70	  790.98	    1.88	    4.42	   700.7	     1126.2
  999.99	  142.00	    1.45	    3.40	   690.7	     1125.9
  992.02	  228.06	    1.47	    3.46	   691.2	     1125.5
  122.07	  773.04	    2.67	    6.28	   705.9	     1125.3
  841.89	  902.21	    1.79	    4.20	   701.3	     1124.9
  943.07	  383.00	     n/a	     n/a	   710.7	     1124.8
  785.91	  410.06	    1.34	    3.14	   719.7	     1123.9
  758.15	   50.16	     n/a	     n/a	   702.3	     1123.5
  472.06	  440.94	    1.41	    3.32	   745.5	     1122.9
  252.40	  906.51	     n/a	     n/a	   707.5	     1122.9
  829.70	  474.80	    1.39	    3.26	   717.6	     1121.9
  680.01	  600.90	    1.62	    3.80	   724.6	     1121.8
   44.50	   14.85	     n/a	     n/a	   701.8	     1121.4
  203.68	  821.83	    2.93	    6.89	   707.9	     1119.7
  554.32	  342.08	    2.48	    5.83	   726.9	     1119.4
  979.76	   35.69	    1.65	    3.89	   693.3	     1119.2
  384.12	  113.40	    1.80	    4.23	   713.2	     1118.2
  343.93	  527.17	    1.91	    4.50	   737.1	     1117.5
  860.47	  352.40	     n/a	     n/a	   711.0	     1115.7
  368.29	  292.03	    2.84	    6.67	   724.6	     1115.5
  866.43	  195.93	    1.48	    3.48	   702.6	     1115.5
  848.70	  736.72	    1.72	    4.05	   704.8	     1113.7
  661.87	  644.97	    1.94	    4.56	   719.6	     1113.3
  175.00	  912.59	     n/a	     n/a	   698.8	     1112.5
  860.47	  352.41	     n/a	     n/a	   711.0	     1112.3
  584.24	  955.57	    1.63	    3.84	   706.4	     1112.2
  635.30	  331.07	    2.39	    5.63	   721.6	     1108.4
  933.63	   80.76	     n/a	     n/a	   696.9	     1108.1
  931.68	  761.17	    1.65	    3.88	   702.7	     1108.1
  668.64	  381.55	    2.54	    5.97	   732.6	     1108.0
  422.09	  413.48	    1.63	    3.83	   750.5	     1107.8
  168.70	  958.88	    2.54	    5.98	   697.5	     1107.6
  584.19	  955.45	    1.64	    3.85	   706.3	     1106.3
  571.40	   35.99	    1.58	    3.71	   707.6	     1104.9
  115.32	   25.29	     n/a	     n/a	   702.6	     1104.6
  876.45	  330.50	    1.52	    3.56	   710.0	     1103.9
  312.40	   59.74	    2.04	    4.79	   708.6	     1102.4
  195.00	  780.00	     n/a	     n/a	   708.4	     1102.4
  101.93	  957.96	    2.16	    5.07	   691.5	     1102.1
  957.88	  298.73	    1.34	    3.14	   699.2	     1101.9
  814.15	  925.99	    2.03	    4.77	   696.3	     1100.8
  138.06	  250.98	    1.99	    4.68	   723.5	     1100.3
  260.48	 1002.00	     n/a	     n/a	   703.2	     1099.9
   14.00	  372.00	     n/a	     n/a	   716.4	     1098.2
  518.83	  412.14	    1.75	    4.11	   740.0	     1098.1
 1009.96	  756.39	     n/a	     n/a	   697.2	     1097.3
   75.03	  725.24	     n/a	     n/a	   704.7	     1097.0
  675.53	  625.48	     n/a	     n/a	   724.8	     1096.8
  278.47	  233.54	    2.09	    4.92	   730.3	     1095.5
  209.43	  568.74	     n/a	     n/a	   725.7	     1095.2
   13.50	  408.74	    1.89	    4.45	   714.4	     1095.1
  844.00	   23.08	     n/a	     n/a	   699.2	     1093.9
  250.78	  332.56	    1.76	    4.13	   730.9	     1093.5
  793.96	  993.93	    1.75	    4.10	   695.6	     1093.1
  860.96	  403.05	    1.31	    3.07	   712.1	     1092.9
  548.87	  157.25	     n/a	     n/a	   715.3	     1092.0
  657.51	   51.10	    1.48	    3.48	   708.1	     1090.3
  662.32	  405.61	     n/a	     n/a	   727.8	     1090.0
  323.56	  550.41	     n/a	     n/a	   727.8	     1089.2
  399.67	  840.88	    1.97	    4.64	   712.3	     1089.0
  945.04	  761.41	    1.53	    3.60	   704.8	     1088.7
  937.93	  592.67	    1.64	    3.86	   705.7	     1087.9
  392.08	  685.15	     n/a	     n/a	   741.2	     1087.1
  316.55	  876.47	    1.69	    3.96	   708.8	     1086.7
  399.67	  840.87	    1.97	    4.63	   712.4	     1085.0
  834.06	  962.44	    2.24	    5.26	   694.3	     1084.2
  232.22	  767.88	    2.20	    5.18	   715.6	     1083.7
  475.50	  984.55	    2.31	    5.44	   705.6	     1081.7
   13.63	  408.76	    1.99	    4.68	   714.5	     1080.2
  684.32	  111.55	    1.62	    3.81	   707.3	     1080.1
   73.17	  899.85	     n/a	     n/a	   694.1	     1079.9
  562.13	  460.94	    1.30	    3.05	   742.4	     1079.6
  745.70	  873.64	     n/a	     n/a	   700.7	     1078.0
  779.41	  638.14	    1.52	    3.56	   716.9	     1074.8
  556.34	  258.04	    1.34	    3.15	   718.8	     1074.6
  931.90	  171.72	    1.40	    3.28	   695.6	     1074.5
  309.54	  534.94	    1.64	    3.86	   729.3	     1074.3
  697.10	  291.02	     n/a	     n/a	   717.8	     1074.0
   92.07	  273.38	     n/a	     n/a	   715.2	     1073.6
   47.27	  749.70	     n/a	     n/a	   696.6	     1073.4
  799.04	  918.61	    1.43	    3.37	   699.2	     1073.2
  524.00	  673.53	     n/a	     n/a	   727.2	     1072.9
  521.72	  992.90	     n/a	     n/a	   703.4	     1072.8
  749.61	  335.54	     n/a	     n/a	   721.6	     1072.2
  207.00	  431.51	    1.80	    4.22	   730.9	     1072.1
  445.03	  204.49	     n/a	     n/a	   714.0	     1071.6
  132.88	  953.52	    2.72	    6.39	   696.0	     1071.2
  375.58	  877.00	     n/a	     n/a	   712.9	     1070.6
  207.00	  431.51	    1.80	    4.22	   730.9	     1070.2
  155.43	  142.28	    2.17	    5.10	   716.5	     1070.1
   59.38	  166.93	    2.63	    6.18	   705.0	     1069.5
  805.06	   44.76	    1.73	    4.08	   697.7	     1069.4
  204.44	  290.01	     n/a	     n/a	   726.9	     1069.1
  334.77	  661.74	     n/a	     n/a	   724.6	     1067.9
  441.51	  119.19	    1.69	    3.96	   712.6	     1067.6
  772.01	  933.23	    1.78	    4.18	   699.1	     1067.3
  618.07	   91.97	    2.44	    5.73	   707.2	     1065.2
  188.05	  801.54	     n/a	     n/a	   704.6	     1064.8
   16.04	  714.89	     n/a	     n/a	   700.6	     1063.7
  384.46	  149.40	     n/a	     n/a	   718.9	     1063.6
  281.06	  513.09	    2.08	    4.90	   731.7	     1062.6
  684.29	  111.68	    1.62	    3.81	   707.1	     1062.2
  558.59	  998.40	     n/a	     n/a	   702.8	     1062.1
  924.11	  152.54	    1.35	    3.17	   697.8	     1060.4
  126.73	  898.62	     n/a	     n/a	   698.3	     1059.3
  278.43	  233.20	     n/a	     n/a	   730.7	     1055.6
  280.10	  663.72	    2.25	    5.29	   719.8	     1055.1
  340.87	  188.11	    1.48	    3.48	   725.2	     1054.9
  338.31	  210.60	     n/a	     n/a	   720.2	     1054.6
  278.44	  233.18	    2.06	    4.83	   730.7	     1053.1
  668.17	  381.63	    2.03	    4.77	   732.3	     1051.6
  637.08	  510.56	    2.45	    5.76	   734.4	     1051.5
  473.14	  942.56	    1.97	    4.62	   705.1	     1050.9
  494.03	   92.11	    1.54	    3.61	   711.1	     1050.6
  956.10	  950.03	    1.97	    4.64	   689.0	     1049.9
  426.79	  217.89	    2.15	    5.06	   735.5	     1047.9
  958.46	   54.47	     n/a	     n/a	   689.1	     1047.4
  988.87	  906.93	    1.63	    3.83	   695.2	     1047.3
  477.16	  213.47	    1.85	    4.35	   719.2	     1047.3
  248.03	  816.68	    2.08	    4.89	   707.2	     1046.8
  347.58	  779.34	    2.38	    5.60	   717.7	     1045.3
  753.31	  854.67	    1.83	    4.30	   702.6	     1044.6
  370.52	  784.03	    2.14	    5.02	   716.6	     1043.4
  577.19	  985.83	    2.40	    5.63	   702.2	     1042.1
  359.00	  127.54	    1.86	    4.38	   719.7	     1041.2
  396.77	  508.47	     n/a	     n/a	   739.9	     1041.1
  470.43	  265.97	    1.34	    3.15	   722.1	     1040.6
  358.06	  945.94	     n/a	     n/a	   707.8	     1040.4
  588.90	  947.03	    2.22	    5.21	   700.4	     1038.8
  129.74	  446.05	    1.75	    4.12	   721.9	     1038.6
  711.95	  320.98	    1.56	    3.67	   716.3	     1035.8
  477.19	  213.36	    1.84	    4.33	   719.4	     1035.5
  252.07	  605.35	    1.73	    4.07	   729.1	     1034.9
  743.49	  356.08	    1.40	    3.29	   717.6	     1032.8
  732.91	  595.02	    1.33	    3.13	   720.7	     1032.3
  471.14	  226.69	    2.52	    5.91	   720.9	     1031.5
  684.17	  111.63	    1.59	    3.73	   707.3	     1031.5
  617.71	  737.97	    2.85	    6.70	   717.4	     1030.0
  427.66	  295.47	     n/a	     n/a	   725.2	     1029.0
  327.11	  665.04	    1.75	    4.12	   724.0	     1027.9
  962.90	  945.96	    1.63	    3.83	   689.5	     1027.6
  182.00	  565.47	     n/a	     n/a	   718.7	     1027.4
   79.89	  851.03	     n/a	     n/a	   695.1	     1026.4
  204.70	  288.70	    2.35	    5.53	   727.1	     1026.1
  327.11	  665.04	    1.75	    4.12	   724.0	     1025.9
  398.05	  884.50	    2.12	    4.98	   715.6	     1025.5
  797.96	  592.09	    1.78	    4.19	   730.8	     1024.4
  229.20	  570.33	    2.47	    5.80	   719.9	     1024.1
   99.67	  779.19	    2.07	    4.87	   707.5	     1024.0
  745.43	  795.10	    1.43	    3.36	   707.1	     1023.3
  396.31	  508.77	     n/a	     n/a	   739.9	     1023.2
  545.33	  153.81	     n/a	     n/a	   716.6	     1022.3
  597.02	  512.66	    1.49	    3.50	   732.9	     1022.0
  653.95	  432.51	     n/a	     n/a	   729.0	     1022.0
  624.42	  271.59	     n/a	     n/a	   721.1	     1022.0
  573.52	  754.49	    1.55	    3.64	   717.1	     1019.6
  210.91	  580.21	    1.82	    4.28	   722.2	     1019.1
  781.75	   18.89	    1.42	    3.35	   709.3	     1018.5
  305.98	  900.21	     n/a	     n/a	   715.4	     1018.1
  672.63	  922.13	    2.04	    4.79	   699.5	     1017.9
  809.00	  772.09	     n/a	     n/a	   707.2	     1017.2
  159.98	  193.91	    2.11	    4.95	   726.6	     1017.2
  135.00	  727.00	     n/a	     n/a	   708.8	     1016.7
  910.96	  359.05	    1.53	    3.61	   707.9	     1016.6
  876.00	  416.01	    1.54	    3.61	   713.4	     1016.4
  637.03	  510.91	     n/a	     n/a	   734.7	     1014.7
   93.38	  288.71	     n/a	     n/a	   716.6	     1014.5
  179.46	  751.01	    1.98	    4.66	   709.4	     1014.3
  450.06	  144.58	    2.05	    4.81	   714.6	     1012.5
  795.51	  340.02	    1.43	    3.36	   715.9	     1012.4
  517.96	  198.44	    1.55	    3.63	   715.9	     1011.9
  140.73	  404.01	     n/a	     n/a	   727.6	     1011.4
  898.34	  702.92	    1.63	    3.84	   703.7	     1010.4
  843.33	  318.99	    1.71	    4.02	   712.1	     1009.5
 1009.04	  755.87	    1.65	    3.89	   697.8	     1009.2
  366.86	  594.09	     n/a	     n/a	   733.5	     1008.3
  299.04	  746.95	    1.68	    3.94	   731.6	     1005.4
  765.26	  430.60	    1.32	    3.11	   724.0	     1005.0
  859.00	  786.52	     n/a	     n/a	   703.5	     1004.9
  912.04	  291.10	    1.11	    2.61	   705.9	     1004.5
  695.90	   38.01	    1.42	    3.33	   707.5	     1004.5
  481.61	  747.95	    1.47	    3.45	   725.4	     1004.3
  912.04	  291.10	    1.11	    2.61	   705.9	     1004.1
  539.25	 1008.70	    2.02	    4.76	   700.4	     1002.2
  628.51	  376.54	    1.77	    4.15	   727.4	     1001.9
  663.87	  165.83	     n/a	     n/a	   711.3	     1001.4
  141.67	  653.45	     n/a	     n/a	   714.1	     1000.4
   23.90	  195.15	    1.74	    4.08	   712.7	     1000.1
  505.08	  470.02	    1.49	    3.51	   745.2	      999.5
  466.75	  465.64	     n/a	     n/a	   749.6	      998.9
  243.03	  548.23	     n/a	     n/a	   723.8	      998.9
  630.96	  927.90	    2.41	    5.66	   707.5	      998.7
  641.55	  780.41	     n/a	     n/a	   709.7	      997.9
  785.01	  115.00	    1.43	    3.36	   706.3	      997.1
  609.91	  330.59	    2.05	    4.81	   726.1	      996.9
  242.73	  548.30	    2.49	    5.84	   723.6	      996.3
   72.40	   28.77	     n/a	     n/a	   698.8	      995.2
  635.02	   92.55	    2.15	    5.04	   708.3	      994.8
  233.67	  651.77	    1.84	    4.32	   728.2	      993.0
  484.30	  289.82	     n/a	     n/a	   725.6	      991.9
  286.55	  720.47	    1.86	    4.37	   717.4	      989.9
  901.34	  921.30	    1.87	    4.39	   693.7	      989.8
   53.27	  685.00	    2.24	    5.26	   703.1	      987.9
  589.28	  764.98	     n/a	     n/a	   720.5	      987.1
  205.32	  629.64	    2.23	    5.24	   717.9	      986.9
  337.99	  540.03	     n/a	     n/a	   728.1	      986.6
  771.69	  643.05	    1.65	    3.88	   720.4	      985.5
   19.39	  661.46	     n/a	     n/a	   707.7	      985.3
  752.00	  110.04	     n/a	     n/a	   708.8	      983.8
  444.55	   47.94	    1.55	    3.64	   707.7	      982.9
  413.39	  145.55	     n/a	     n/a	   717.3	      981.8
  685.06	 1005.23	    1.63	    3.83	   696.6	      981.7
  515.02	  797.94	    2.72	    6.40	   715.5	      980.6
   14.61	  687.00	     n/a	     n/a	   704.1	      979.9
  621.72	  490.00	    2.94	    6.92	   734.2	      979.8
   34.00	  431.46	     n/a	     n/a	   712.1	      978.7
   93.83	 1006.20	    2.14	    5.03	   688.4	      977.2
  471.47	  226.89	    2.35	    5.51	   720.9	      977.1
  446.17	  936.30	    1.86	    4.37	   707.8	      976.3
  961.90	  368.49	    1.19	    2.80	   703.6	      975.8
  829.30	  848.04	    1.52	    3.58	   707.9	      975.6
   77.50	  669.00	     n/a	     n/a	   709.1	      974.5
 1008.98	  754.87	     n/a	     n/a	   698.2	      973.3
  567.01	  196.06	    1.41	    3.32	   722.8	      973.2
  414.47	  842.47	     n/a	     n/a	   713.3	      973.1
  338.42	  127.79	     n/a	     n/a	   714.8	      973.0
  213.16	  536.83	     n/a	     n/a	   719.6	      972.1
  337.73	  715.33	     n/a	     n/a	   721.8	      969.8
   68.62	  738.00	     n/a	     n/a	   703.1	      968.9
  515.42	  466.19	     n/a	     n/a	   743.6	      968.5
  897.96	  408.89	    1.29	    3.04	   708.4	      966.8
  610.29	  411.06	    2.71	    6.37	   729.9	      965.2
  296.75	  943.48	     n/a	     n/a	   708.4	      964.2
  954.40	  477.79	     n/a	     n/a	   701.6	      963.8
  904.25	  599.69	     n/a	     n/a	   710.9	      963.2
  928.12	  113.56	    1.21	    2.84	   695.5	      963.0
  827.71	  526.51	     n/a	     n/a	   712.8	      961.3
  612.01	  482.49	    1.70	    4.01	   734.0	      960.7
  944.67	  847.79	    1.61	    3.78	   701.3	      960.2
  444.47	  204.57	     n/a	     n/a	   714.7	      957.8
  724.18	  107.99	    2.01	    4.72	   708.6	      957.5
   13.00	  770.51	     n/a	     n/a	   695.6	      956.3
   97.03	  911.52	    1.96	    4.60	   692.4	      955.1
  106.28	  549.42	     n/a	     n/a	   708.7	      955.0
  353.26	  667.47	     n/a	     n/a	   725.2	      954.6
  944.83	  847.67	    1.61	    3.79	   701.4	      953.9
  487.51	  768.95	    1.91	    4.49	   720.6	      953.9
  751.24	   60.99	    1.27	    2.99	   701.5	      953.7
  259.58	  133.12	    1.60	    3.75	   711.6	      953.4
  299.12	  699.94	    1.74	    4.08	   728.6	      953.3
  740.98	  310.01	    1.47	    3.46	   723.3	      949.4
   60.71	  458.97	    2.07	    4.86	   719.2	      948.9
  270.73	  993.58	     n/a	     n/a	   706.9	      948.4
  178.34	  228.02	    1.69	    3.98	   731.3	      948.4
  252.33	   38.96	    1.95	    4.57	   707.2	      948.2
  343.85	  353.64	    2.13	    4.99	   746.0	      947.8
  278.75	  203.12	    2.03	    4.77	   719.3	      947.3
  270.73	  993.58	     n/a	     n/a	   706.9	      945.9
   43.28	  386.79	    2.72	    6.40	   716.4	      945.0
  690.17	   90.69	     n/a	     n/a	   707.8	      944.7
  628.26	  577.28	    2.03	    4.77	   728.6	      941.2
  337.55	  715.50	     n/a	     n/a	   721.7	      940.2
  222.08	  121.08	    2.62	    6.17	   716.9	      940.0
  670.63	  954.24	     n/a	     n/a	   697.7	      939.9
  408.10	  726.99	     n/a	     n/a	   719.1	      939.9
  877.92	  766.90	    1.56	    3.66	   705.1	      939.5
  569.98	  355.16	    1.69	    3.97	   727.2	      939.1
  997.90	  283.12	    2.17	    5.11	   698.1	      936.9
  147.52	  113.84	    1.82	    4.27	   715.5	      935.5
  628.20	  556.04	    1.21	    2.84	   734.6	      934.2
  497.46	  316.48	    2.06	    4.83	   723.6	      933.8
  882.99	  686.99	    2.36	    5.54	   706.9	      933.6
  617.74	   21.06	    2.18	    5.13	   704.3	      931.5
  612.94	  122.37	    1.89	    4.43	   712.2	      930.5
  301.44	  757.26	    2.25	    5.29	   720.8	      930.0
  858.56	  876.42	    1.76	    4.13	   702.4	      929.7
  997.90	  283.12	    2.17	    5.11	   698.1	      928.9
  499.56	  649.30	     n/a	     n/a	   729.7	      928.7
  663.58	  766.04	    1.85	    4.36	   717.8	      928.7
  998.03	  180.79	     n/a	     n/a	   693.3	      926.6
  956.30	  282.03	    2.09	    4.91	   698.3	      924.6
  809.28	  482.16	    1.83	    4.31	   716.9	      924.5
  557.06	  309.91	    2.04	    4.80	   724.5	      923.8
   63.26	  181.99	    2.28	    5.35	   708.6	      923.7
   45.00	   15.91	    1.40	    3.29	   702.7	      922.4
  301.48	  757.48	    2.31	    5.42	   720.4	      922.0
  377.71	  559.69	    1.73	    4.06	   737.6	      921.2
  367.32	  117.02	    2.33	    5.48	   716.5	      921.1
  629.36	  457.11	    1.45	    3.40	   740.8	      921.0
  729.25	  843.66	     n/a	     n/a	   704.1	      921.0
   62.58	  681.42	     n/a	     n/a	   704.7	      920.2
  967.00	  544.47	    1.30	    3.05	   697.7	      919.9
   90.94	  245.76	    2.01	    4.72	   718.1	      919.1
  455.96	  785.97	    1.93	    4.53	   720.9	      918.8
  945.61	  752.73	     n/a	     n/a	   702.9	      918.4
  431.93	  387.86	     n/a	     n/a	   744.2	      918.1
  409.08	  917.91	    1.66	    3.90	   712.7	      917.9
  569.24	  949.73	     n/a	     n/a	   702.2	      917.5
  940.62	   30.99	    1.40	    3.28	   695.6	      917.1
  444.94	  908.94	    2.11	    4.95	   708.0	      916.6
  161.35	  578.92	    1.68	    3.96	   716.6	      916.6
  942.30	   54.15	    1.58	    3.70	   691.5	      915.0
  802.05	  559.09	    1.95	    4.59	   716.7	      914.9
  717.69	  832.08	    2.80	    6.58	   707.7	      914.3
   84.98	  678.19	     n/a	     n/a	   710.6	      914.1
  858.02	  923.75	     n/a	     n/a	   697.3	      912.1
  409.08	  917.91	    1.66	    3.90	   712.7	      911.6
 1005.90	  122.98	    2.46	    5.79	   691.2	      909.9
  253.04	  796.94	    1.70	    4.01	   710.9	      909.2
  144.48	  273.57	     n/a	     n/a	   727.5	      908.1
  423.51	  474.00	     n/a	     n/a	   752.7	      907.8
  644.27	  894.20	    1.76	    4.14	   703.5	      907.6
  129.00	  518.57	     n/a	     n/a	   718.8	      906.1
  304.99	  218.98	    1.68	    3.96	   721.3	      906.1
  769.96	   93.49	    1.93	    4.54	   702.3	      905.7
  428.89	  394.08	     n/a	     n/a	   743.7	      903.6
  798.02	  383.45	    1.60	    3.77	   716.3	      901.8
  741.02	  845.23	    1.51	    3.55	   703.2	      901.6
  639.93	  146.96	    1.35	    3.18	   714.6	      901.6
  895.32	  430.07	    1.25	    2.94	   708.9	      900.9
  499.25	  649.35	    2.77	    6.51	   730.2	      900.9
   14.23	  711.91	     n/a	     n/a	   701.8	      899.0
  793.40	  705.24	    1.43	    3.37	   714.6	      898.4
  763.00	  457.29	    1.34	    3.15	   733.2	      897.1
  543.72	  317.67	     n/a	     n/a	   726.2	      897.1
  798.00	  258.11	    1.29	    3.03	   712.2	      897.0
  948.05	  874.93	    1.48	    3.48	   696.7	      896.7
  199.09	  215.67	    1.70	    4.00	   723.9	      895.1
  796.45	  505.91	    1.51	    3.54	   717.1	      894.9
  398.98	   26.92	     n/a	     n/a	   705.5	      893.8
  602.51	  569.55	     n/a	     n/a	   729.4	      893.6
  829.25	  665.93	     n/a	     n/a	   711.7	      893.4
 1005.90	  122.98	    2.46	    5.79	   691.2	      892.7
  805.75	   69.45	    1.88	    4.41	   700.6	      891.8
  729.00	  843.95	     n/a	     n/a	   703.9	      891.5
  820.26	  240.07	    1.71	    4.01	   712.6	      890.5
  261.00	  646.58	     n/a	     n/a	   719.4	      890.3
  690.23	   91.14	    1.77	    4.15	   708.3	      889.4
   72.08	  170.95	    2.42	    5.69	   706.3	      889.3
  934.25	  387.88	    1.29	    3.03	   709.0	      888.3
  521.98	  897.27	    1.97	    4.63	   710.8	      888.0
  951.47	  146.50	    2.20	    5.18	   701.6	      887.4
  576.95	  838.65	    1.78	    4.17	   717.1	      886.9
  344.09	  268.08	    1.64	    3.86	   723.2	      886.7
  236.99	   53.07	    1.73	    4.06	   708.8	      886.0
  600.11	   60.94	     n/a	     n/a	   714.8	      885.0
  384.77	  222.41	     n/a	     n/a	   718.8	      884.8
  496.25	   31.02	    1.93	    4.53	   704.0	      884.6
   32.75	  358.98	     n/a	     n/a	   715.6	      883.7
  763.01	  457.34	    1.35	    3.17	   733.4	      883.4
  647.08	  101.54	    1.49	    3.51	   711.6	      882.8
  245.02	  912.89	    2.09	    4.90	   703.7	      882.7
  686.10	  612.09	    1.32	    3.10	   720.8	      881.7
  701.00	  651.43	    2.34	    5.51	   723.7	      881.0
  690.21	  715.75	     n/a	     n/a	   718.2	      880.8
  489.84	  217.97	    2.27	    5.33	   719.2	      880.7
  521.88	  993.84	    2.46	    5.78	   703.3	      880.5
  245.02	  912.90	    2.09	    4.90	   703.7	      880.4
  335.32	  499.11	    1.59	    3.73	   742.9	      880.4
  170.99	  514.24	    2.09	    4.91	   715.9	      880.2
  465.05	   85.38	    1.74	    4.09	   709.3	      879.3
  725.49	  622.95	     n/a	     n/a	   727.4	      878.7
  933.67	  729.38	     n/a	     n/a	   703.2	      878.6
  366.40	  664.85	    2.31	    5.42	   727.0	      878.0
  885.81	  165.24	    1.39	    3.27	   700.2	      877.9
  921.05	   34.33	    1.54	    3.62	   698.5	      877.7
  858.99	  127.32	    1.21	    2.85	   703.2	      877.6
  307.52	  976.00	    2.60	    6.12	   700.3	      876.6
  269.00	  674.00	     n/a	     n/a	   718.2	      876.3
  933.21	  303.25	    1.47	    3.46	   705.6	      876.2
  169.93	  111.43	     n/a	     n/a	   714.4	      876.1
  908.54	  922.00	     n/a	     n/a	   695.1	      874.4
   95.90	  599.13	    1.77	    4.16	   710.9	      873.6
  672.13	  600.48	    1.79	    4.22	   723.4	      872.9
  406.10	  784.01	    1.62	    3.80	   724.5	      872.8
  492.95	  436.22	     n/a	     n/a	   743.3	      872.4
  134.28	  872.61	     n/a	     n/a	   696.4	      872.1
  820.85	 1004.39	    1.71	    4.03	   691.8	      871.6
  898.24	  819.42	     n/a	     n/a	   699.1	      871.3
  696.44	  470.87	    2.24	    5.25	   732.1	      871.3
  408.54	   38.53	    1.58	    3.71	   705.9	      870.1
  936.97	  451.05	    1.81	    4.26	   703.1	      868.2
  764.95	  977.60	    1.62	    3.81	   705.1	      867.9
  959.45	  994.88	     n/a	     n/a	   681.7	      866.2
  654.97	  412.49	    1.32	    3.10	   730.6	      865.0
  123.10	  759.68	    1.95	    4.58	   709.8	      863.2
  725.01	   89.76	     n/a	     n/a	   711.4	      863.1
  536.51	  161.97	     n/a	     n/a	   715.0	      863.0
 1004.48	  840.94	    1.66	    3.90	   695.6	      861.1
  587.28	  163.10	    2.27	    5.34	   714.2	      859.0
   51.59	  324.00	     n/a	     n/a	   710.7	      858.9
  648.59	  416.49	     n/a	     n/a	   726.7	      858.1
  362.98	  270.26	    1.91	    4.50	   727.6	      857.5
  535.70	  121.24	     n/a	     n/a	   714.3	      856.9
  682.04	  862.51	    1.88	    4.43	   708.5	      856.7
  646.08	  362.89	     n/a	     n/a	   724.5	      856.4
  247.28	  529.72	     n/a	     n/a	   723.8	      856.1
  476.88	   57.90	    1.69	    3.96	   709.7	      853.7
  570.54	  673.02	    1.42	    3.33	   723.2	      853.1
  198.58	  812.92	    1.84	    4.32	   705.0	      853.1
  940.21	   15.05	    1.45	    3.41	   690.7	      853.0
   89.59	  136.27	    1.53	    3.60	   712.3	      852.8
  133.05	   37.15	     n/a	     n/a	   711.4	      852.7
  520.13	  731.04	    1.78	    4.19	   718.6	      852.2
  722.81	   41.82	    1.51	    3.54	   710.2	      850.7
  693.50	  750.02	    1.65	    3.87	   715.7	      850.2
  309.88	  693.45	    1.75	    4.11	   725.6	      848.2
  687.20	  950.81	     n/a	     n/a	   703.8	      846.0
  614.99	  248.48	    2.36	    5.55	   720.0	      845.9
  546.10	  198.01	    2.27	    5.33	   720.4	      845.6
  619.71	  552.07	    1.43	    3.37	   739.5	      844.8
  703.50	  775.48	    1.47	    3.47	   716.8	      843.5
   17.43	  660.05	     n/a	     n/a	   707.4	      843.3
  572.12	  999.13	     n/a	     n/a	   700.5	      843.0
  989.06	  321.97	    1.49	    3.50	   699.1	      842.7
  807.11	  871.77	     n/a	     n/a	   702.4	      840.3
  411.87	  627.04	     n/a	     n/a	   722.0	      840.2
  635.39	  401.28	     n/a	     n/a	   731.5	      839.6
  498.87	  647.79	     n/a	     n/a	   731.7	      838.8
  365.76	  140.12	    2.15	    5.05	   726.1	      838.8
   53.49	  702.00	    2.68	    6.30	   702.5	      838.5
  787.00	  962.49	    2.44	    5.74	   700.5	      837.9
  951.09	  773.84	    2.34	    5.50	   704.4	      837.0
  366.51	  664.57	    1.94	    4.56	   727.0	      836.6
  288.00	  976.39	     n/a	     n/a	   697.8	      836.0
  154.80	   42.94	    2.14	    5.04	   704.0	      836.0
   18.00	  365.00	     n/a	     n/a	   717.8	      835.3
  786.45	  325.09	    1.31	    3.09	   714.2	      834.9
   24.31	  954.89	     n/a	     n/a	   690.2	      834.3
  685.50	  985.81	    2.33	    5.47	   701.5	      832.7
  514.03	  569.02	    1.32	    3.10	   739.6	      831.9
  892.97	  414.32	    1.26	    2.95	   710.2	      831.4
  374.71	  534.37	     n/a	     n/a	   729.7	      829.9
  602.06	  231.67	    1.29	    3.04	   719.3	      829.8
  979.68	  967.12	    1.77	    4.15	   682.4	      829.4
  174.69	  141.93	     n/a	     n/a	   725.7	      829.3
  378.86	  817.08	    1.80	    4.22	   714.6	      828.8
  546.00	  518.31	     n/a	     n/a	   752.1	      828.8
  788.04	  770.26	    1.59	    3.73	   705.2	      828.5
   15.00	  685.00	     n/a	     n/a	   705.4	      828.1
   85.28	   39.77	     n/a	     n/a	   703.6	      826.7
  206.32	   35.94	     n/a	     n/a	   701.9	      826.1
  288.34	  619.74	    2.49	    5.84	   724.9	      826.0
  346.61	   84.00	     n/a	     n/a	   715.9	      825.4
  401.01	  559.02	    2.03	    4.78	   728.6	      825.3
  496.75	  747.40	     n/a	     n/a	   719.5	      824.7
   48.23	  233.92	    1.99	    4.68	   715.9	      823.7
  527.99	  659.28	    2.07	    4.85	   732.1	      823.7
  718.78	  374.60	    1.34	    3.15	   724.6	      821.8
  687.26	  950.91	    2.60	    6.10	   703.8	      821.2
  503.48	  910.44	    2.49	    5.86	   705.5	      821.1
  480.54	  384.12	    1.51	    3.54	   736.4	      819.0
  454.49	  962.41	    1.98	    4.65	   706.9	      818.7
  877.00	  478.55	     n/a	     n/a	   708.5	      818.7
  422.01	  675.93	    1.75	    4.12	   723.1	      818.3
  444.61	  665.55	     n/a	     n/a	   727.1	      818.0
  696.21	  757.30	    1.17	    2.75	   716.2	      817.9
  237.00	  903.00	    2.49	    5.85	   704.4	      817.8
  149.80	  108.77	     n/a	     n/a	   715.6	      816.5
  261.96	  904.90	    1.70	    3.99	   710.9	      815.6
  821.90	  552.97	     n/a	     n/a	   713.5	      815.6
  777.00	  397.13	     n/a	     n/a	   719.7	      815.3
  401.37	  538.06	    1.95	    4.59	   735.2	      815.0
  510.98	  301.92	    2.55	    5.99	   721.6	      814.9
  735.99	  194.04	    1.32	    3.11	   712.7	      813.4
  909.74	   25.80	    1.42	    3.33	   699.6	      813.0
   67.32	  616.33	     n/a	     n/a	   706.8	      810.9
  794.01	   98.03	    1.79	    4.20	   704.8	      810.6
  360.97	  791.36	    1.73	    4.06	   715.6	      807.2
  706.13	  834.22	    1.45	    3.40	   707.7	      806.1
  179.19	  399.38	    1.67	    3.92	   726.5	      805.5
   15.57	  660.20	     n/a	     n/a	   706.0	      805.5
 1003.02	  195.96	    1.32	    3.11	   697.2	      805.0
  121.07	  291.80	     n/a	     n/a	   725.2	      804.4
   69.39	  868.24	    2.04	    4.79	   696.3	      802.7
  549.20	  379.40	    1.51	    3.54	   729.9	      801.5
   13.05	   27.95	     n/a	     n/a	   697.7	      801.1
  526.13	  889.17	     n/a	     n/a	   718.3	      801.0
  252.05	  716.75	     n/a	     n/a	   712.2	      800.6
  198.00	   65.39	    1.82	    4.28	   707.8	      800.0
  805.71	  880.94	     n/a	     n/a	   703.7	      799.5
  131.08	  583.03	    1.85	    4.35	   718.4	      799.1
  273.93	  143.57	     n/a	     n/a	   714.6	      798.3
  580.45	  500.10	    1.42	    3.33	   732.9	      797.3
  160.60	  389.25	    2.16	    5.09	   726.4	      796.6
  832.81	  154.66	    1.28	    3.02	   703.1	      796.5
  823.52	  599.05	    1.31	    3.08	   719.2	      796.2
  325.45	  551.81	     n/a	     n/a	   727.3	      796.1
  420.14	  797.90	    1.72	    4.05	   717.3	      796.1
  957.36	  839.00	    1.99	    4.67	   699.4	      795.9
  255.23	  698.32	    1.62	    3.82	   715.3	      794.3
  252.08	  632.01	    1.96	    4.61	   725.0	      793.8
  382.82	  550.20	    1.77	    4.15	   732.3	      793.3
  767.08	  242.18	    1.36	    3.20	   707.9	      793.0
  841.07	  457.67	    2.42	    5.68	   711.6	      792.8
  763.27	  630.91	    1.64	    3.85	   717.7	      791.9
  377.35	  765.30	     n/a	     n/a	   714.9	      791.3
  920.00	  639.97	    1.49	    3.50	   703.1	      790.7
  700.23	  287.01	     n/a	     n/a	   717.7	      790.5
  327.03	  198.98	    2.09	    4.91	   718.1	      790.3
  462.00	  903.46	     n/a	     n/a	   712.2	      790.2
  525.95	  702.57	    1.33	    3.13	   726.7	      786.2
  685.89	  254.06	    1.51	    3.55	   720.7	      784.3
  930.85	  731.24	     n/a	     n/a	   702.4	      784.0
  399.82	  751.36	     n/a	     n/a	   719.1	      783.9
  911.49	  750.91	    1.51	    3.54	   700.8	      782.7
  233.41	  188.84	     n/a	     n/a	   723.0	      782.3
  327.09	  558.97	    1.68	    3.96	   731.9	      781.4
  476.35	  219.49	     n/a	     n/a	   722.8	      781.1
  148.48	  453.58	    1.68	    3.94	   722.5	      780.1
  577.76	  957.29	     n/a	     n/a	   705.7	      778.4
  775.01	  593.72	    2.03	    4.76	   718.6	      777.7
  325.75	  551.75	    1.83	    4.31	   727.2	      777.5
 1009.17	  482.66	     n/a	     n/a	   700.0	      776.6
  636.00	  932.97	    2.16	    5.07	   712.1	      776.2
  382.58	  314.16	    1.59	    3.74	   726.1	      775.9
  768.42	  181.73	     n/a	     n/a	   711.4	      775.2
  255.03	  698.56	    1.58	    3.70	   715.5	      775.1
  223.83	  239.61	    1.82	    4.28	   725.4	      774.8
  299.08	  251.03	    1.62	    3.81	   726.5	      774.0
  628.17	  107.06	     n/a	     n/a	   709.1	      773.8
  191.51	  315.55	    1.66	    3.90	   723.7	      773.4
  782.52	  553.54	    1.50	    3.53	   721.3	      772.9
   81.25	  464.10	     n/a	     n/a	   715.8	      772.4
  569.22	  143.22	    2.01	    4.73	   711.9	      772.2
   40.97	   13.98	     n/a	     n/a	   695.8	      771.5
  517.56	  541.00	    2.13	    5.02	   736.4	      770.6
  773.87	  200.06	     n/a	     n/a	   710.2	      770.5
  881.50	  929.00	     n/a	     n/a	   693.6	      770.3
  923.79	  352.60	    1.49	    3.50	   707.8	      769.4
  899.17	  677.07	     n/a	     n/a	   705.1	      768.5
  483.25	  289.90	    2.22	    5.22	   726.7	      767.5
  735.67	  273.78	    1.61	    3.79	   717.1	      767.3
  619.87	  542.64	    1.62	    3.81	   733.8	      766.2
   90.23	   32.24	    1.99	    4.67	   704.1	      765.8
  274.48	  658.51	     n/a	     n/a	   718.2	      765.7
  904.98	  459.16	    1.50	    3.53	   705.4	      765.6
  493.99	  178.52	    1.44	    3.39	   719.6	      765.5
  309.36	  521.93	    2.00	    4.70	   733.0	      764.5
  961.79	  575.97	    1.91	    4.49	   699.9	      764.1
  565.77	  850.92	    2.48	    5.83	   713.7	      762.9
  750.70	  798.82	    2.40	    5.65	   707.9	      762.6
  877.28	  820.01	    1.68	    3.95	   705.9	      761.1
  317.42	   83.16	     n/a	     n/a	   723.1	      759.8
  294.72	  708.92	    1.76	    4.14	   723.7	      759.8
  428.35	  915.31	    1.77	    4.15	   708.7	      759.4
  817.12	   13.44	     n/a	     n/a	   698.4	      759.3
  953.97	  643.89	    2.15	    5.05	   701.3	      758.7
  736.00	  178.55	    1.90	    4.48	   710.9	      758.5
  898.85	  686.92	    1.55	    3.65	   706.0	      757.3
  843.44	  398.06	    1.88	    4.41	   717.7	      755.6
  497.26	  998.62	    1.78	    4.17	   704.7	      755.5
  584.97	  746.69	    1.75	    4.12	   720.0	      753.4
  160.12	   79.74	    1.91	    4.48	   711.6	      753.4
  149.66	  649.29	    2.44	    5.74	   715.5	      752.4
  575.03	   13.17	     n/a	     n/a	   702.5	      748.6
 1003.43	  249.41	     n/a	     n/a	   694.1	      748.5
  954.45	  726.96	    1.46	    3.43	   703.9	      747.7
  622.00	  805.00	     n/a	     n/a	   715.8	      746.5
  752.73	  915.01	     n/a	     n/a	   699.2	      746.3
  356.90	  818.48	    1.95	    4.57	   712.9	      745.6
  733.21	  977.70	    2.40	    5.64	   699.9	      743.0
   63.42	   34.57	     n/a	     n/a	   700.2	      742.7
  293.06	  840.70	     n/a	     n/a	   711.8	      741.1
  848.93	   61.94	    1.88	    4.41	   699.5	      740.1
   43.60	  964.76	     n/a	     n/a	   688.2	      737.6
 1004.25	  115.08	     n/a	     n/a	   692.2	      726.5
 1003.53	  249.19	     n/a	     n/a	   694.2	      725.0
  902.57	  999.72	     n/a	     n/a	   682.9	      718.1
 183.65           663.47            0.00            0.00           682.1             5432.7      
 964.07           496.96            0.00            0.00           682.1             3117.1
  42.46           532.50            0.00            0.00           682.1             4315.4
  53.93            74.56            0.00            0.00           682.1             4625.7
 101.92           403.07            0.00            0.00           682.1             5617.6
 120.86           697.26            0.00            0.00           682.1             6669.2
 974.92           492.98            0.00            0.00           682.1             3460.6
 558.05           817.58            0.00            0.00           682.1             3481.9
 475.94           887.69            0.00            0.00           682.1             1422.1
 663.94           317.64            0.00            0.00           682.1             2512.9
 350.62           903.88            0.00            0.00           682.1             3168.2
  38.39           483.50            0.00            0.00           682.1             8452.8
  39.28           484.01            0.00            0.00           682.1             8451.9
 583.11           435.63            0.00            0.00           682.1             3188.9
 970.14           957.53            0.00            0.00           682.1             2074.0
 994.87            13.63            0.00            0.00           682.1            12438.6
  39.69           720.47            0.00            0.00           682.1            34834.8
 217.50           980.57            0.00            0.00           682.1             3030.1
 969.21           958.19            0.00            0.00           682.1             2213.8
 966.40           967.41            0.00            0.00           682.1             2838.9
 786.42           999.54            0.00            0.00           682.1             2413.4
  82.64           958.74            0.00            0.00           682.1             2808.9
 948.48           998.87            0.00            0.00           682.1             2278.7
1000.96           872.03            0.00            0.00           682.1             3571.5
  47.28           181.45            0.00            0.00           682.1             2156.2
 158.05           806.11            0.00            0.00           682.1             3107.6
 967.93           853.73            0.00            0.00           682.1             8378.6
 926.95           898.45            0.00            0.00           682.1             7837.2
 838.76           948.09            0.00            0.00           682.1             3482.2
 998.97           898.03            0.00            0.00           682.1             4253.7
 965.40           912.39            0.00            0.00           682.1             6701.5
 825.78           769.79            0.00            0.00           682.1             4156.1
 910.43           685.40            0.00            0.00           682.1             7863.1
 881.87           882.26            0.00            0.00           682.1             3286.0
 930.12           794.92            0.00            0.00           682.1            10829.5
 852.79           899.13            0.00            0.00           682.1             3196.5
  70.08           704.65            0.00            0.00           682.1             3077.4
 982.32           842.67            0.00            0.00           682.1            10055.8
 249.54           416.88            0.00            0.00           682.1             2884.7
 846.97          1008.28            0.00            0.00           682.1             3177.9
 947.19           815.32            0.00            0.00           682.1            13506.4
 940.21           914.93            0.00            0.00           682.1             2493.4
 966.33           966.21            0.00            0.00           682.1             2818.3
 947.50           960.04            0.00            0.00           682.1             2347.3
 196.88           102.62            0.00            0.00           682.1             2606.8
 606.91           827.15            0.00            0.00           682.1             2254.7
  40.69           229.55            0.00            0.00           682.1             2093.2
 796.45           981.59            0.00            0.00           682.1             2316.1
 371.84           950.12            0.00            0.00           682.1             2201.4
 867.96           987.09            0.00            0.00           682.1             1887.5
 431.03          1003.01            0.00            0.00           682.1             1881.7
 213.33           435.99            0.00            0.00           682.1             1810.6
 778.02           893.70            0.00            0.00           682.1             1611.8
 909.97           981.94            0.00            0.00           682.1             1640.7
 970.24           682.25            0.00            0.00           682.1             1681.1
  39.35           918.31            0.00            0.00           682.1             2635.8
 819.69           815.70            0.00            0.00           682.1             1631.5
 894.07           908.61            0.00            0.00           682.1             1490.6
 575.63           656.77            0.00            0.00           682.1             1281.9
 461.86           962.35            0.00            0.00           682.1            18619.2
  33.98           265.42            0.00            0.00           682.1             4017.9
 868.59           791.23            0.00            0.00           682.1             1207.8
 178.93           154.39            0.00            0.00           682.1             1277.5
 837.68            70.28            0.00            0.00           682.1              808.7
 710.04           593.95            0.00            0.00           682.1              827.1
 642.16           183.67            0.00            0.00           682.1              998.7
 735.02           700.34            0.00            0.00           682.1            19179.2
1000.91           921.97            0.00            0.00           682.1             5014.4
 677.07           673.68            0.00            0.00           682.1             3980.3
 635.41           401.79            0.00            0.00           682.1              891.5
 805.72           393.96            0.00            0.00           682.1             3307.6
 619.27           502.62            0.00            0.00           682.1             3737.5
 270.46           405.21            0.00            0.00           682.1             3349.9
1003.18           947.80            0.00            0.00           682.1             2558.2
  87.86           663.98            0.00            0.00           682.1             1453.6
  34.00           432.00            0.00            0.00           682.1             5513.1
 997.95           699.60            0.00            0.00           682.1             1587.8
 720.01           573.57            0.00            0.00           682.1             1398.5
 998.60           908.05            0.00            0.00           682.1              890.8
 539.62           475.98            0.00            0.00           682.1           128523.8
  41.18           457.71            0.00            0.00           682.1             8130.7
  63.33           151.35            0.00            0.00           682.1             7636.6
  44.09           965.18            0.00            0.00           682.1             1351.4
 923.51           788.25            0.00            0.00           682.1             2548.5
  56.86           280.75            0.00            0.00           682.1             5095.6
  47.35           521.29            0.00            0.00           682.1             8364.3
 905.43           135.02            0.00            0.00           682.1             3783.9
  47.00           605.45            0.00            0.00           682.1             2328.9
  50.36           797.19            0.00            0.00           682.1             7900.6
 963.38            73.28            0.00            0.00           682.1             1973.4
 400.49           183.46            0.00            0.00           682.1            61176.3
  16.22            33.89            0.00            0.00           682.1             4530.4
  35.89            31.80            0.00            0.00           682.1             3525.2
 471.34           339.49            0.00            0.00           682.1             3184.2
  32.92           358.92            0.00            0.00           682.1             5537.6
 197.88           102.53            0.00            0.00           682.1             2926.0
 813.48           940.59            0.00            0.00           682.1             4204.5
 360.44           979.31            0.00            0.00           682.1             1695.4
 515.38           980.95            0.00            0.00           682.1             1036.4
  39.31           732.44            0.00            0.00           682.1             1435.5

