#"+EI Scan (rt: 8.956-9.073 min, 21 scans) R8M1.D  Subtract "
#Point,X(Thompsons),Y(Counts)
40.0730 53.5998802185059
41.0482 3417.310546875
41.9570 187.827362060547
42.0939 79.3103485107422
43.0600 1571.72265625
43.1682 45.3965911865234
43.9584 210.768707275391
44.0612 14.1502685546875
44.9356 121.061584472656
45.7300 9.10111713409424
45.8600 7.64845705032349
46.1574 6.50538635253906
47.0016 1213.96118164063
48.9170 8.86789894104004
49.8566 22.0232830047607
50.0164 65.5136337280273
50.1300 9.00387382507324
50.8000 31.1494140625
50.9866 340.480773925781
51.7700 9.17626476287842
51.8832 34.18115234375
52.0600 74.1052627563477
53.0441 213.152954101563
53.9500 59.0070495605469
54.0800 35.0180511474609
55.0317 432.335693359375
55.1567 33.5594062805176
55.9900 153.758544921875
56.0871 21.4055118560791
57.0177 98.2630920410156
57.9964 21.4233322143555
58.1533 31.2519245147705
59.0246 1020.83447265625
59.8200 16.1275272369385
59.9600 26.2044372558594
60.8935 108.132164001465
60.9908 268.910797119141
61.1100 14.0768661499023
61.2200 8.14789390563965
61.7300 8.57396984100342
61.8587 86.9142913818359
62.0100 112.620468139648
62.1700 9.38601970672607
63.0088 646.241394042969
63.7840 28.7147674560547
63.9623 65.2039642333984
64.1800 10.5415544509888
64.8863 70.5873718261719
65.0295 169.005523681641
65.1100 57.5055389404297
65.7800 17.97727394104
65.9002 19.547119140625
66.8000 16.4859237670898
66.9073 82.5398254394531
67.0300 87.3325653076172
67.9000 11.4275674819946
68.0700 15.1548109054565
69.0072 501.890533447266
69.0806 481.801483154297
70.0500 7.88049030303955
70.8700 30.495906829834
71.0323 11.4644451141357
72.2447 0.403098106384277
73.0365 492.511962890625
73.9080 50.1154937744141
74.0205 194.774917602539
74.1488 5.92366218566895
74.8919 56.1066665649414
75.0234 561.979064941406
75.8484 98.8235626220703
75.9574 243.011947631836
76.1064 185.137100219727
77.0254 1470.5078125
78.0200 642.2197265625
78.9142 53.8136100769043
79.0242 186.127136230469
79.9025 15.8166217803955
80.0621 20.9843139648438
80.3300 11.6088943481445
80.8900 86.2208633422852
80.9902 78.084716796875
81.7300 10.8741235733032
81.8363 46.4700393676758
81.9928 47.2553176879883
82.6523 8.21650791168213
82.7994 46.8629455566406
82.9400 48.4957733154297
84.8422 54.8441314697266
85.1079 48.7163925170898
85.9000 76.2017135620117
86.1000 10.3497943878174
86.7400 5.86064529418945
86.8864 88.5002136230469
86.9900 135.437042236328
87.1000 77.3402633666992
87.9500 370.803283691406
88.1100 86.5834579467773
88.9360 22.8300018310547
89.0385 1756.77478027344
89.1500 56.3948860168457
89.9049 155.226898193359
90.0131 137.992263793945
90.1586 17.0658130645752
90.8303 39.2954940795898
90.9606 288.385070800781
91.0455 167.574722290039
91.8892 13.241340637207
92.0900 28.6514720916748
92.9374 76.8049774169922
93.0603 37.150333404541
93.8600 32.6785697937012
93.9763 23.871898651123
94.7000 35.2209129333496
94.7745 15.8795986175537
94.9077 29.9294471740723
95.1336 20.1936149597168
95.8591 8.72571182250977
96.2900 18.1510276794434
96.8726 24.2996101379395
97.0047 134.324951171875
97.7000 15.8547420501709
97.8427 18.921817779541
98.0300 47.4652328491211
98.1058 11.6650533676147
98.8600 15.9648323059082
98.9853 12.3636331558228
99.1100 31.7991428375244
99.5100 9.32933616638184
99.6500 15.9208269119263
99.8153 24.715799331665
99.9516 31.7347526550293
100.1080 42.2760925292969
100.9194 255.268890380859
101.0500 797.804138183594
102.0300 2256.60668945313
102.7420 2.77197742462158
102.9005 77.6447906494141
103.0188 637.278076171875
103.1400 21.8291511535645
103.7779 28.4243717193604
103.9200 48.3971786499023
104.0411 56.7178382873535
104.1600 7.92317056655884
104.7420 14.8175439834595
104.8814 34.2412567138672
105.7668 6.33875560760498
105.9200 25.3028793334961
106.2500 58.9638557434082
106.4200 66.2006149291992
106.6100 53.252254486084
106.8700 138.700775146484
107.1126 78.8225173950195
107.4700 28.8018798828125
107.6000 41.4068946838379
107.8504 32.7474708557129
107.9807 12.6454238891602
108.2025 57.5686454772949
109.0238 1183.63110351563
109.8142 75.8553009033203
109.9381 35.8067626953125
110.7371 22.0416069030762
110.8946 132.454193115234
111.6700 7.47184467315674
111.7900 15.1471033096313
111.9600 93.1023406982422
112.6735 33.5243835449219
112.8424 188.3447265625
112.9779 326.209533691406
113.0879 208.783218383789
113.2100 35.4285087585449
113.7100 38.7423973083496
113.8262 100.546646118164
113.9700 584.060302734375
114.0800 295.968933105469
115.0402 10463.1923828125
115.9897 1951.6357421875
116.0600 2585.263671875
116.9168 184.062713623047
117.0281 571.428771972656
117.8013 38.4704055786133
117.9000 41.2145309448242
118.0474 150.511077880859
118.3100 15.2240600585938
118.5500 23.8193264007568
118.7665 39.7406997680664
118.9400 58.4130859375
119.1110 93.1699066162109
119.2300 49.0406303405762
119.4600 26.8388710021973
119.5700 142.95100402832
119.6900 55.2611999511719
119.8500 19.4511566162109
120.0047 22.863245010376
120.1800 34.0509262084961
120.4400 392.877197265625
120.6400 204.685668945313
120.7468 62.4423217773438
121.0231 145.830413818359
121.1500 18.8909854888916
121.2680 40.3451843261719
121.4800 39.2379035949707
121.7300 17.7868366241455
121.8800 20.7196292877197
122.9414 42.7139587402344
123.0800 37.974365234375
124.2200 10.8890819549561
124.8441 52.000129699707
124.9866 69.2447280883789
125.0918 77.0070419311523
125.7906 51.5048980712891
125.9600 308.369140625
126.0500 227.892623901367
126.2000 38.4300117492676
126.7756 28.6467781066895
126.8893 78.6382446289063
126.9724 594.051940917969
127.0915 845.039306640625
127.8100 86.8423233032227
127.9604 1034.49377441406
128.0500 1395.68151855469
129.0000 2120.70751953125
129.0928 98.8673400878906
129.8133 32.791446685791
129.9300 182.846664428711
130.0300 1253.73962402344
130.6577 6.59441089630127
130.8502 2.23017883300781
130.9500 40.5973014831543
131.0678 176.458389282227
131.8700 51.0536918640137
131.9891 118.421264648438
132.2500 46.5847396850586
132.3800 25.4675464630127
132.6281 27.8885879516602
132.8192 18.4793319702148
133.0823 182.425994873047
133.3800 138.599487304688
133.5000 138.433074951172
133.6299 507.558898925781
133.7900 51.3058395385742
133.8964 20.9088649749756
134.2294 86.0934906005859
134.3800 142.113952636719
134.5400 396.554443359375
134.7016 582.072204589844
134.8551 139.485366821289
134.9948 28.4587097167969
135.2024 71.0742340087891
135.6985 15.1278696060181
135.8162 113.475852966309
137.0045 3002.892578125
137.9344 188.699340820313
138.0165 219.293334960938
139.0401 5112.9501953125
139.8622 9.81509876251221
140.0200 1281.85522460938
140.1200 357.510406494141
141.0699 9223.25
141.5875 31.8304233551025
141.9092 624.5947265625
142.0288 781.430236816406
142.1568 158.043365478516
142.9351 496.808563232422
143.0402 477.289093017578
143.9200 51.3716468811035
144.0299 7742.5302734375
144.9262 100.478881835938
145.0308 716.465942382813
145.7500 8.14383125305176
145.8981 81.1514663696289
146.0080 17.9795227050781
146.1800 8.83300304412842
146.4700 8.97586250305176
146.8900 70.6871337890625
147.1500 103.375953674316
147.3400 42.1466293334961
147.5200 63.0246353149414
147.7784 120.577194213867
148.4400 300.144287109375
148.5200 1205.18811035156
148.6500 421.799987792969
148.7132 126.398056030273
149.1195 141.903198242188
149.3300 34.1696853637695
149.5100 22.6343955993652
149.6800 85.4756393432617
149.8400 20.9096412658691
150.0200 92.927604675293
150.1500 38.7537536621094
150.8827 23.1884651184082
151.0064 208.233642578125
151.1350 28.9932136535645
151.7858 20.5172004699707
152.0407 475.648742675781
152.1900 8.48035430908203
152.9745 186.049560546875
153.0810 372.290466308594
153.9294 246.994552612305
154.0603 404.149780273438
154.9940 910.668273925781
155.9466 256.336059570313
156.0666 298.537170410156
156.8912 61.7960510253906
157.0180 205.16796875
157.7136 3.87531471252441
157.8700 118.421966552734
158.0298 210.54182434082
158.9709 940.18359375
159.8153 12.5637359619141
159.9357 96.1178588867188
160.0200 67.0671691894531
160.8906 31.7005310058594
161.0058 91.0471801757813
161.8927 7.63059520721436
161.9700 66.0103073120117
162.7178 30.172872543335
162.9103 125.918395996094
163.0100 46.4892578125
163.8389 67.3064727783203
163.9829 156.586654663086
164.7100 10.8983697891235
164.9006 221.383163452148
165.0107 67.7458038330078
165.1000 99.330207824707
165.7300 10.2815618515015
165.8857 110.305419921875
166.0390 40.6581115722656
166.1900 30.9046363830566
166.3800 9.24252891540527
166.8694 159.140960693359
166.9799 155.223770141602
167.8090 119.048652648926
167.9300 61.9798126220703
168.0600 310.897064208984
168.2200 25.0428810119629
169.0395 4729.90087890625
169.1000 679.556884765625
169.9300 190.448150634766
170.0400 1164.93701171875
170.8800 134.606536865234
171.0258 154.103668212891
171.6739 4.63444423675537
171.9400 26.3928527832031
172.0800 20.6181011199951
172.6700 21.5430946350098
172.7857 35.9843254089355
172.9481 4.61186027526855
174.0400 23.0780067443848
174.9100 11.9308395385742
175.0700 17.7326984405518
175.6800 30.5774593353271
175.8500 40.6625213623047
176.0100 187.615447998047
176.1900 15.2318696975708
176.5918 9.73950958251953
176.8749 0.710708618164063
176.9810 80.7416915893555
177.0800 70.9629669189453
177.9339 60.4112930297852
178.7907 16.0951023101807
178.9413 41.5723266601563
179.0570 25.8315296173096
179.7808 26.1807746887207
179.9407 68.3467864990234
180.0800 55.395263671875
180.9683 733.343688964844
181.0304 3352.765625
181.8877 121.047164916992
182.0300 609.091186523438
182.7934 23.6329383850098
182.9564 126.686332702637
183.1054 71.4630355834961
183.7168 4.263014793396
183.9217 39.3504409790039
184.0700 139.84733581543
184.2100 20.052734375
184.7175 80.5674743652344
184.8385 70.5026245117188
184.9658 20.2626647949219
185.6800 16.3509216308594
185.8171 23.2719993591309
185.9433 39.0171241760254
186.0300 24.7811241149902
186.2000 11.4965896606445
186.9707 341.343627929688
187.9332 67.0179672241211
188.0500 67.8368453979492
188.1700 17.8399200439453
188.7350 39.3992233276367
188.8950 129.377853393555
189.0296 139.349533081055
189.8447 17.4349365234375
189.9900 47.6207046508789
190.1200 10.8020830154419
190.7361 16.7205581665039
190.8700 41.2559509277344
190.9700 17.4342193603516
191.0638 36.8063468933105
191.6357 4.32717704772949
191.7900 15.959644317627
191.9734 103.740661621094
192.0870 7.00732040405273
192.7800 138.69580078125
192.8768 25.8959503173828
193.8867 88.3790435791016
194.0115 32.6075134277344
194.9632 352.614501953125
195.0900 52.5770797729492
195.9400 132.943939208984
196.1579 9.29671859741211
196.9353 256.534332275391
197.9100 113.936805725098
198.0449 26.2695732116699
198.7227 8.98462295532227
198.8345 195.954132080078
198.9254 46.8100891113281
199.6084 7.08076095581055
199.7864 30.1036605834961
199.9371 122.96467590332
200.0493 159.528045654297
200.9573 326.9150390625
201.8964 205.722610473633
202.0185 232.523712158203
202.1747 7.06861782073975
202.9300 94.2330474853516
203.0589 114.895217895508
203.9383 206.246963500977
204.0500 119.94100189209
204.8100 24.7885627746582
204.9667 90.1913146972656
205.1300 26.0681858062744
205.8600 23.6923217773438
205.9900 19.1132316589355
206.8733 131.818725585938
207.0613 294.322540283203
207.9743 43.806396484375
208.1166 78.6585922241211
208.8719 7.80649948120117
209.0150 0.612251281738281
209.1200 28.3668384552002
209.7800 3.30932092666626
209.9417 24.3651447296143
210.0673 31.2585144042969
211.0084 898.1181640625
211.9214 44.2539367675781
212.0100 350.141571044922
213.0439 906.841674804688
213.8933 58.4541358947754
214.0277 410.8974609375
214.1300 163.890045166016
214.9855 1797.26708984375
215.9071 393.809143066406
215.9751 16.1494140625
216.9885 618.1728515625
217.7236 2.93886756896973
217.8844 9.43770599365234
217.9891 90.7464141845703
218.1000 23.2065582275391
218.9410 309.397888183594
219.8928 146.855545043945
220.8293 25.0193634033203
220.9188 61.2771148681641
221.0332 9.24156951904297
221.9741 52.8215980529785
222.7679 14.062442779541
222.9272 93.8173751831055
223.7451 0.25341796875
223.9400 173.050704956055
224.0600 155.269683837891
224.7600 23.5354061126709
224.9209 309.276153564453
225.0426 71.4190216064453
225.9377 204.727127075195
226.0200 753.747924804688
226.1000 319.272094726563
226.9700 170.807922363281
227.0807 622.410339355469
227.1800 16.4920253753662
227.9600 171.187652587891
228.0803 765.478820800781
228.2600 15.5217361450195
229.0128 199.412384033203
229.0881 258.862670898438
229.8215 62.8979454040527
229.9653 153.127349853516
230.0800 73.8945007324219
230.2100 7.46381759643555
230.3700 10.2200765609741
230.6500 17.0680408477783
230.7930 32.2366333007813
230.9233 37.267032623291
231.0343 10.9186134338379
231.1600 4.41106224060059
232.1099 10639.1689453125
233.0078 2167.59033203125
233.8900 2.5489501953125
234.0013 329.146118164063
234.8921 125.725158691406
235.8271 47.2369041442871
235.9646 119.146240234375
236.9755 1045.71484375
237.9578 373.27294921875
238.0789 44.692081451416
239.0012 633.099304199219
239.1000 94.7095108032227
239.7200 23.0342426300049
239.8851 139.985763549805
240.0599 1129.38012695313
240.2500 19.6066627502441
241.0465 3300.80737304688
241.8089 3.08977890014648
242.0089 388.684906005859
242.0998 654.380187988281
242.9286 134.448257446289
243.0300 53.1178512573242
244.8069 18.6542510986328
244.9245 28.1727981567383
246.9700 15.4779720306396
247.7600 8.39689445495605
248.7619 3.63290214538574
248.9300 46.7869682312012
249.0389 26.5204963684082
250.0400 50.0407943725586
250.8400 10.0228137969971
250.9485 176.914276123047
251.0701 218.111801147461
252.0000 285.838928222656
252.1000 199.876388549805
252.6519 32.1956901550293
252.9464 323.798461914063
253.0876 722.406982421875
253.9000 49.3557243347168
254.0800 3520.49243164063
255.0099 842.321594238281
255.1100 1221.4326171875
255.2100 16.4803485870361
255.8700 99.0791931152344
256.0400 576.763366699219
256.1400 390.552093505859
256.7900 25.4720458984375
256.9297 110.741333007813
257.0300 164.386047363281
257.1900 13.8845930099487
257.8700 10.2806615829468
258.0300 62.4682960510254
258.9865 27.5027675628662
259.9400 18.4472637176514
260.8500 37.6640014648438
262.1300 16.922887802124
262.8525 49.4225654602051
263.0323 22.3717193603516
263.9200 86.4337005615234
264.0700 79.2687072753906
264.6514 13.4559707641602
265.0600 224.347137451172
265.1900 31.6970558166504
265.7900 33.5168647766113
265.9300 54.0706977844238
266.0700 497.975402832031
266.1900 31.7077579498291
266.9300 329.386474609375
267.0900 611.401672363281
267.7700 26.3666591644287
267.9100 45.0761871337891
268.0200 741.006408691406
268.1200 1203.25915527344
268.4200 15.783618927002
268.6842 11.1298561096191
269.0794 2529.70654296875
269.7900 13.2487287521362
269.9323 23.9792938232422
270.0600 1142.99426269531
270.1300 996.884643554688
271.0400 747.370239257813
271.1800 29.5132389068604
271.8181 1.77506923675537
271.9728 126.748733520508
272.9400 182.798675537109
273.8255 0.540031433105469
273.9669 4.96608543395996
274.6958 15.2578525543213
274.7983 16.8983001708984
274.9993 75.7638473510742
275.7754 8.67318916320801
275.9641 34.37060546875
276.1287 4.56185436248779
276.9022 108.522552490234
276.9989 37.4452209472656
277.8946 82.8874435424805
278.0200 120.417945861816
278.8238 11.9129180908203
278.9610 138.663818359375
279.0700 79.9695205688477
279.9700 197.18798828125
280.0800 487.922607421875
280.8472 10.2032737731934
280.9743 303.302673339844
281.0711 441.267364501953
281.2200 65.3918838500977
281.7612 10.3693399429321
281.9249 79.8344879150391
282.0601 1115.58154296875
282.2100 13.2011394500732
283.0700 1836.90087890625
284.0800 5381.16455078125
284.9909 239.984909057617
285.0900 1148.11401367188
285.8576 59.1920433044434
286.0402 322.644836425781
286.2300 24.0844974517822
286.8600 13.1707820892334
286.9881 71.0007476806641
288.1100 10.3486909866333
288.8841 107.192459106445
288.9861 137.509643554688
289.9003 25.7973480224609
290.0376 72.6598358154297
291.0273 136.857299804688
291.9866 38.3961029052734
292.1400 40.8759460449219
292.9770 933.776977539063
293.9120 235.192916870117
294.0376 228.231689453125
294.2400 19.9633522033691
294.9974 167.441741943359
295.1387 11.7843103408813
295.8800 27.1753921508789
295.9997 338.185485839844
296.1100 383.324615478516
296.9507 265.448913574219
297.0800 238.328399658203
298.0999 9084.91796875
298.9251 131.523223876953
299.0797 1956.19592285156
299.1890 55.0214920043945
299.8200 9.23962116241455
300.0300 154.64306640625
300.1400 82.1039810180664
300.8246 25.8843364715576
300.9270 31.5446319580078
301.0908 2.12824201583862
302.8900 33.0431709289551
303.1300 9.34296703338623
305.0175 5.18953895568848
305.1700 8.20315742492676
305.9900 9.27077388763428
306.8696 7.2589225769043
306.9900 4.67877578735352
307.0973 33.8773574829102
307.8900 34.9691467285156
308.0500 57.125919342041
308.2000 10.9833326339722
308.9600 9.05174732208252
309.1100 25.8792781829834
309.9100 61.2529296875
310.0600 140.568237304688
310.1700 11.1378917694092
310.6534 17.2842750549316
310.9944 59.3923492431641
311.0900 43.8029861450195
311.9200 92.2166213989258
312.0900 175.932510375977
312.2500 31.9232139587402
313.0474 45.5969009399414
313.2300 17.8760108947754
314.7700 43.2017402648926
319.2100 10.8956518173218
322.1000 16.3114547729492
324.0100 33.257698059082
324.1400 43.2808494567871
325.0200 7.43495035171509
325.2500 20.3923759460449
325.9200 8.73944568634033
326.2300 15.4945936203003
326.7200 13.9665365219116
326.9100 12.6161756515503
327.0600 16.9804840087891
328.0600 9.73213577270508
329.0813 18.618408203125
329.2100 36.2978210449219
329.9200 22.6658744812012
330.1400 20.1361961364746
330.8911 12.3747968673706
333.0100 8.63775157928467
335.0600 10.6689586639404
335.8600 29.4980182647705
336.0900 29.21506690979
336.2600 35.5597305297852
336.9100 25.4895401000977
337.2100 8.39425659179688
338.0200 26.4815101623535
338.1600 37.0172233581543
338.3400 9.51269435882568
339.1100 13.775315284729
339.8700 20.5575656890869
340.0500 106.949348449707
340.1600 278.039520263672
340.2700 38.9347686767578
340.8500 32.9625015258789
341.0000 70.4619445800781
341.1700 60.0964012145996
342.1500 23.8099822998047
342.8900 7.47879695892334
344.0900 178.025695800781
344.2100 231.010467529297
344.3300 8.6790075302124
345.1000 232.251831054688
345.2000 114.084213256836
346.0400 29.1088695526123
346.1500 59.4640312194824
346.8400 8.84546947479248
346.9600 8.91268157958984
348.8392 0.996562957763672
348.9623 31.1511268615723
349.0900 19.1891994476318
349.2600 7.55622339248657
349.7700 8.53520011901855
350.9500 19.9190464019775
351.1320 9.6354923248291
351.8600 35.2815475463867
352.0200 48.6172409057617
352.1700 62.149658203125
352.8735 12.6946029663086
353.0600 216.448196411133
353.2000 64.806640625
353.9000 9.58543014526367
354.0200 136.468704223633
354.1300 398.770568847656
354.2400 39.1993598937988
354.6600 8.23641777038574
354.9700 81.0811157226563
355.1300 195.273468017578
355.3600 10.5230884552002
356.0903 159.361206054688
356.1800 9653.6337890625
357.0000 32.0282096862793
357.1600 2795.75854492188
358.0200 83.7806015014648
358.1000 1288.61303710938
358.1700 1991.0810546875
358.8900 16.2360763549805
359.0387 121.779808044434
359.1400 636.537109375
359.2200 153.931594848633
359.9100 15.101676940918
360.0200 12.7972164154053
360.1500 11.9562492370605
360.2800 74.2907485961914
366.9400 25.8526840209961
367.0208 13.829044342041
367.1539 23.1056118011475
370.1200 16.1142959594727
370.8800 9.84334564208984
370.9810 1.70918416976929
371.0900 78.2230682373047
371.2600 8.83070755004883
372.0560 48.5202484130859
372.1700 7927.06689453125
373.1700 15662.4169921875
374.0700 70.7430725097656
374.1800 4105.48681640625
374.3100 54.6018257141113
375.0400 169.739669799805
375.1600 450.207763671875
376.1200 37.6243591308594
